# File: 20-06-08T225218.ast
# NOTEA     = None Attached.  RTLSDR Dongle Test
# NOTEB     = Spectral Integration
# OBSERVER  = Science Aficionado
# DEVICE    = rtlsdr=0
# DATADIR   = ../data/
# SITE      = None Attached.  RTLSDR Dongle Test
# CITY      = Green Bank
# REGION    = West Virginia
# COUNTRY   = US
# TELTYPE   = Bubble Wrap  Horn
# FRAME     = TOPO
# GAIN1     = 49.0
# GAIN2     = 11.0
# GAIN3     = 11.0
# GAIN4     = 0.0
# Count     = 10000
# CenterFreq= 1400000000.0
# Bandwidth = 2500000.0
# Duration  = 83.535955
# DeltaX    = 5859.375
# TSYS      = 200.0
# TRX       = 100.0
# TRMS      = 2.0
# TINT      = 1.0
# KPERC     = 100.0
# GAINFACT  = 1.0
# BUNIT     = Counts
# NCHAN     = 2048
# NSPEC     = 1
# NTIME     = 0
# NSAMPLES  = 0
# EPEAK     = 4.10875183718
# ERMS      = 0.995973393526
# EMJD      = 58568.808999981004 
# REFCHAN   = 1024.0
# REFSAMPL  = 256.0
# NAVE      = 100
# NMEDIAN   = 1024
# Fft_rate  = 5000
# UTC       = 2020-06-08 22:52:18.304311
# SECONDS   =       0.0000000000 
# LST       = 10:44:02.690
# AZ        = 180.0
# EL        = 90.0
# TELLON    = -79:50:22.920
# TELLAT    = +38:25:59.160
# RA        = 10:41:44.080
# DEC       = +38:38:34.800
# GALLON    = 181:34:51.40
# GALLAT    = +60:37:57.60
# ALT_SUN   = +19:00:20.0
# AZ_SUN    = +284:41:27.9
# ETAA      = 0.8
# ETAB      = 0.99
# POLANGLE  = 0.0
# TELSIZEAM = 1.0
# TELSIZEBM = 1.0
# AST_VERS  = 05.01
0000 1398750610 11.8645
0001 1398751831 11.8814
0002 1398753051 11.9092
0003 1398754272 12.1186
0004 1398755493 11.8807
0005 1398756713 12.1205
0006 1398757934 11.9482
0007 1398759155 11.9581
0008 1398760375 11.9836
0009 1398761596 12.0622
0010 1398762817 12.3337
0011 1398764038 11.9578
0012 1398765258 11.9419
0013 1398766479 12.0258
0014 1398767700 11.8780
0015 1398768920 11.8712
0016 1398770141 11.8934
0017 1398771362 11.9582
0018 1398772583 11.9314
0019 1398773803 12.2700
0020 1398775024 12.0775
0021 1398776245 12.1487
0022 1398777465 12.1965
0023 1398778686 12.1976
0024 1398779907 12.2747
0025 1398781127 12.3729
0026 1398782348 12.1619
0027 1398783569 12.1725
0028 1398784790 12.4675
0029 1398786010 12.8559
0030 1398787231 12.5036
0031 1398788452 12.5317
0032 1398789672 12.4677
0033 1398790893 12.4677
0034 1398792114 12.4831
0035 1398793334 12.7241
0036 1398794555 12.7604
0037 1398795776 12.7541
0038 1398796997 16.7898
0039 1398798217 18.3479
0040 1398799438 13.1384
0041 1398800659 13.5062
0042 1398801879 13.0261
0043 1398803100 12.9539
0044 1398804321 13.0608
0045 1398805541 13.0498
0046 1398806762 13.0540
0047 1398807983 13.1802
0048 1398809204 13.2271
0049 1398810424 13.1855
0050 1398811645 13.5158
0051 1398812866 13.4652
0052 1398814086 13.5221
0053 1398815307 13.6129
0054 1398816528 13.6498
0055 1398817749 13.7081
0056 1398818969 13.7503
0057 1398820190 13.9140
0058 1398821411 13.8943
0059 1398822631 13.9508
0060 1398823852 13.9675
0061 1398825073 13.9620
0062 1398826293 14.1865
0063 1398827514 14.2520
0064 1398828735 14.2607
0065 1398829956 14.4326
0066 1398831176 14.5198
0067 1398832397 14.5824
0068 1398833618 14.7284
0069 1398834838 15.3450
0070 1398836059 14.8940
0071 1398837280 14.8491
0072 1398838500 14.9292
0073 1398839721 15.0981
0074 1398840942 15.1262
0075 1398842163 15.1914
0076 1398843383 15.2827
0077 1398844604 15.4245
0078 1398845825 15.5659
0079 1398847045 15.6391
0080 1398848266 15.6715
0081 1398849487 16.0132
0082 1398850708 15.9084
0083 1398851928 15.9210
0084 1398853149 15.9149
0085 1398854370 15.9709
0086 1398855590 16.2737
0087 1398856811 16.3393
0088 1398858032 16.6373
0089 1398859252 16.4684
0090 1398860473 16.6092
0091 1398861694 16.6957
0092 1398862915 16.7362
0093 1398864135 16.9906
0094 1398865356 17.0445
0095 1398866577 17.1774
0096 1398867797 17.3472
0097 1398869018 17.3994
0098 1398870239 17.7847
0099 1398871459 17.7250
0100 1398872680 17.7425
0101 1398873901 17.7861
0102 1398875122 17.8830
0103 1398876342 18.0312
0104 1398877563 18.2254
0105 1398878784 18.3117
0106 1398880004 18.4782
0107 1398881225 18.5967
0108 1398882446 18.6433
0109 1398883666 18.6968
0110 1398884887 19.0629
0111 1398886108 19.2180
0112 1398887329 19.6931
0113 1398888549 19.4309
0114 1398889770 19.3439
0115 1398890991 19.5965
0116 1398892211 19.7369
0117 1398893432 19.7854
0118 1398894653 20.8091
0119 1398895874 21.2046
0120 1398897094 20.4382
0121 1398898315 20.5316
0122 1398899536 20.5952
0123 1398900756 20.6400
0124 1398901977 20.5712
0125 1398903198 20.7245
0126 1398904418 21.0311
0127 1398905639 21.0759
0128 1398906860 21.2561
0129 1398908081 21.4699
0130 1398909301 21.7104
0131 1398910522 21.6543
0132 1398911743 21.6676
0133 1398912963 22.7664
0134 1398914184 22.3561
0135 1398915405 22.0977
0136 1398916625 22.4021
0137 1398917846 22.4795
0138 1398919067 22.7984
0139 1398920288 22.7586
0140 1398921508 22.9298
0141 1398922729 23.0134
0142 1398923950 23.4040
0143 1398925170 23.9594
0144 1398926391 24.1968
0145 1398927612 23.7368
0146 1398928833 23.8879
0147 1398930053 23.9420
0148 1398931274 24.1721
0149 1398932495 24.4921
0150 1398933715 24.5958
0151 1398934936 24.5053
0152 1398936157 24.8179
0153 1398937377 24.9984
0154 1398938598 25.1748
0155 1398939819 25.2212
0156 1398941040 25.8929
0157 1398942260 25.5409
0158 1398943481 25.4697
0159 1398944702 25.8602
0160 1398945922 25.8544
0161 1398947143 26.3265
0162 1398948364 26.3265
0163 1398949584 26.2276
0164 1398950805 26.5698
0165 1398952026 26.5357
0166 1398953247 26.6736
0167 1398954467 27.1208
0168 1398955688 27.7082
0169 1398956909 27.6509
0170 1398958129 27.3961
0171 1398959350 27.5404
0172 1398960571 27.7906
0173 1398961791 27.9654
0174 1398963012 28.3054
0175 1398964233 29.0358
0176 1398965454 28.6191
0177 1398966674 28.5221
0178 1398967895 28.7340
0179 1398969116 29.0152
0180 1398970336 29.5455
0181 1398971557 29.7909
0182 1398972778 29.4199
0183 1398973999 29.5641
0184 1398975219 29.8499
0185 1398976440 29.7217
0186 1398977661 30.2636
0187 1398978881 30.5035
0188 1398980102 30.2641
0189 1398981323 30.2202
0190 1398982543 30.4994
0191 1398983764 30.6055
0192 1398984985 30.8748
0193 1398986206 31.1143
0194 1398987426 31.2803
0195 1398988647 31.4644
0196 1398989868 31.6812
0197 1398991088 31.5291
0198 1398992309 31.7618
0199 1398993530 32.1291
0200 1398994750 32.3664
0201 1398995971 32.3179
0202 1398997192 32.2218
0203 1398998413 32.7687
0204 1398999633 32.9652
0205 1399000854 33.2895
0206 1399002075 33.4918
0207 1399003295 33.3841
0208 1399004516 33.8781
0209 1399005737 34.5115
0210 1399006958 34.8133
0211 1399008178 35.6565
0212 1399009399 35.0433
0213 1399010620 34.5458
0214 1399011840 34.6084
0215 1399013061 34.9099
0216 1399014282 34.8798
0217 1399015502 35.1252
0218 1399016723 37.3809
0219 1399017944 35.7685
0220 1399019165 35.3586
0221 1399020385 35.0770
0222 1399021606 35.6266
0223 1399022827 35.7732
0224 1399024047 35.9139
0225 1399025268 36.3825
0226 1399026489 36.5055
0227 1399027709 36.1886
0228 1399028930 36.4729
0229 1399030151 36.4221
0230 1399031372 36.9367
0231 1399032592 36.9939
0232 1399033813 37.3276
0233 1399035034 37.0718
0234 1399036254 37.3182
0235 1399037475 37.5892
0236 1399038696 38.0952
0237 1399039916 38.2976
0238 1399041137 37.8782
0239 1399042358 38.3962
0240 1399043579 38.3478
0241 1399044799 39.2157
0242 1399046020 38.6538
0243 1399047241 38.6958
0244 1399048461 39.3061
0245 1399049682 39.1834
0246 1399050903 39.5630
0247 1399052124 39.1203
0248 1399053344 39.6788
0249 1399054565 39.4318
0250 1399055786 40.3761
0251 1399057006 40.0124
0252 1399058227 40.1749
0253 1399059448 39.9501
0254 1399060668 40.6598
0255 1399061889 41.3812
0256 1399063110 41.0251
0257 1399064331 40.9226
0258 1399065551 40.9377
0259 1399066772 40.6479
0260 1399067993 41.5850
0261 1399069213 42.4009
0262 1399070434 41.7675
0263 1399071655 41.9237
0264 1399072875 41.6380
0265 1399074096 42.2109
0266 1399075317 42.1883
0267 1399076538 42.7833
0268 1399077758 43.7168
0269 1399078979 42.4060
0270 1399080200 42.2375
0271 1399081420 42.7582
0272 1399082641 42.7222
0273 1399083862 43.2084
0274 1399085083 43.6946
0275 1399086303 43.4906
0276 1399087524 43.5920
0277 1399088745 43.7447
0278 1399089965 43.8879
0279 1399091186 44.0276
0280 1399092407 44.7867
0281 1399093627 44.6995
0282 1399094848 44.6756
0283 1399096069 44.4283
0284 1399097290 44.7435
0285 1399098510 44.6198
0286 1399099731 45.1291
0287 1399100952 45.0478
0288 1399102172 45.1684
0289 1399103393 45.1738
0290 1399104614 45.4577
0291 1399105834 44.8331
0292 1399107055 45.4918
0293 1399108276 45.9828
0294 1399109497 45.6718
0295 1399110717 46.1761
0296 1399111938 46.1639
0297 1399113159 46.2278
0298 1399114379 46.2364
0299 1399115600 46.7422
0300 1399116821 46.8144
0301 1399118041 46.1842
0302 1399119262 46.6109
0303 1399120483 46.6857
0304 1399121704 47.0576
0305 1399122924 47.5160
0306 1399124145 47.5690
0307 1399125366 47.4493
0308 1399126586 47.3270
0309 1399127807 47.5288
0310 1399129028 48.4850
0311 1399130249 48.4051
0312 1399131469 47.6299
0313 1399132690 47.6552
0314 1399133911 48.0349
0315 1399135131 48.9719
0316 1399136352 48.5475
0317 1399137573 49.5673
0318 1399138793 49.9005
0319 1399140014 49.0353
0320 1399141235 48.7252
0321 1399142456 48.6374
0322 1399143676 48.9651
0323 1399144897 49.0956
0324 1399146118 49.5362
0325 1399147338 49.2768
0326 1399148559 49.5206
0327 1399149780 49.4902
0328 1399151000 49.5208
0329 1399152221 49.9732
0330 1399153442 50.1088
0331 1399154663 50.0631
0332 1399155883 50.1746
0333 1399157104 50.0088
0334 1399158325 49.6377
0335 1399159545 50.2448
0336 1399160766 51.0510
0337 1399161987 50.1113
0338 1399163208 50.5112
0339 1399164428 50.4539
0340 1399165649 50.6882
0341 1399166870 51.0931
0342 1399168090 51.1279
0343 1399169311 51.4554
0344 1399170532 50.9081
0345 1399171752 51.0050
0346 1399172973 51.5352
0347 1399174194 51.6574
0348 1399175415 51.7322
0349 1399176635 51.4075
0350 1399177856 51.4272
0351 1399179077 51.2407
0352 1399180297 51.5462
0353 1399181518 51.4664
0354 1399182739 51.7817
0355 1399183959 51.8169
0356 1399185180 52.0772
0357 1399186401 51.9677
0358 1399187622 51.8898
0359 1399188842 51.9564
0360 1399190063 54.6927
0361 1399191284 53.3128
0362 1399192504 52.7518
0363 1399193725 52.3120
0364 1399194946 52.6992
0365 1399196166 52.5026
0366 1399197387 52.9227
0367 1399198608 54.6585
0368 1399199829 53.5750
0369 1399201049 52.4515
0370 1399202270 52.6187
0371 1399203491 52.9388
0372 1399204711 53.5826
0373 1399205932 53.8974
0374 1399207153 53.7638
0375 1399208374 52.7830
0376 1399209594 53.1084
0377 1399210815 53.6252
0378 1399212036 53.7941
0379 1399213256 53.8500
0380 1399214477 53.7428
0381 1399215698 53.6630
0382 1399216918 53.3679
0383 1399218139 53.9147
0384 1399219360 53.5785
0385 1399220581 54.6269
0386 1399221801 54.4793
0387 1399223022 53.8429
0388 1399224243 54.0786
0389 1399225463 54.0948
0390 1399226684 54.2551
0391 1399227905 54.2699
0392 1399229125 54.2067
0393 1399230346 54.2058
0394 1399231567 54.1121
0395 1399232788 53.9452
0396 1399234008 54.2152
0397 1399235229 53.4690
0398 1399236450 54.7568
0399 1399237670 54.4866
0400 1399238891 54.2310
0401 1399240112 54.4441
0402 1399241333 54.2985
0403 1399242553 54.7200
0404 1399243774 56.0120
0405 1399244995 56.1044
0406 1399246215 54.5500
0407 1399247436 54.8739
0408 1399248657 54.7968
0409 1399249877 55.0961
0410 1399251098 54.8587
0411 1399252319 54.5659
0412 1399253540 54.9174
0413 1399254760 54.8045
0414 1399255981 54.9608
0415 1399257202 55.0014
0416 1399258422 55.1960
0417 1399259643 56.4718
0418 1399260864 55.0759
0419 1399262084 54.7050
0420 1399263305 54.8378
0421 1399264526 54.7203
0422 1399265747 55.0987
0423 1399266967 55.9065
0424 1399268188 55.5182
0425 1399269409 55.3587
0426 1399270629 55.1792
0427 1399271850 54.9047
0428 1399273071 55.4560
0429 1399274291 55.5607
0430 1399275512 56.0986
0431 1399276733 55.1387
0432 1399277954 55.0240
0433 1399279174 55.1233
0434 1399280395 55.4363
0435 1399281616 55.5106
0436 1399282836 55.2923
0437 1399284057 55.1488
0438 1399285278 55.1934
0439 1399286499 55.3214
0440 1399287719 55.3365
0441 1399288940 54.9604
0442 1399290161 56.0164
0443 1399291381 55.4542
0444 1399292602 55.9945
0445 1399293823 55.5244
0446 1399295043 55.3223
0447 1399296264 55.5178
0448 1399297485 56.3018
0449 1399298706 56.0572
0450 1399299926 55.6694
0451 1399301147 55.0474
0452 1399302368 55.8370
0453 1399303588 55.6160
0454 1399304809 55.8587
0455 1399306030 56.4461
0456 1399307250 55.9963
0457 1399308471 55.5144
0458 1399309692 55.7710
0459 1399310913 56.4739
0460 1399312133 57.2467
0461 1399313354 56.9390
0462 1399314575 55.3198
0463 1399315795 55.5028
0464 1399317016 55.4614
0465 1399318237 56.1163
0466 1399319458 56.6458
0467 1399320678 58.0907
0468 1399321899 56.1322
0469 1399323120 55.6137
0470 1399324340 56.3936
0471 1399325561 55.6850
0472 1399326782 55.7159
0473 1399328002 56.2052
0474 1399329223 56.4266
0475 1399330444 55.9671
0476 1399331665 55.4975
0477 1399332885 55.8228
0478 1399334106 56.3736
0479 1399335327 56.3012
0480 1399336547 56.3733
0481 1399337768 56.2189
0482 1399338989 55.9640
0483 1399340209 55.7931
0484 1399341430 56.2265
0485 1399342651 56.3061
0486 1399343872 55.6649
0487 1399345092 55.5321
0488 1399346313 55.6095
0489 1399347534 55.8684
0490 1399348754 55.5688
0491 1399349975 56.4258
0492 1399351196 56.3583
0493 1399352416 55.3211
0494 1399353637 56.2392
0495 1399354858 55.7190
0496 1399356079 55.8941
0497 1399357299 56.4610
0498 1399358520 56.2009
0499 1399359741 55.8629
0500 1399360961 56.1961
0501 1399362182 56.5062
0502 1399363403 55.9745
0503 1399364624 56.3517
0504 1399365844 56.1472
0505 1399367065 55.4250
0506 1399368286 56.1764
0507 1399369506 55.6665
0508 1399370727 55.9919
0509 1399371948 57.0301
0510 1399373168 57.0919
0511 1399374389 55.6405
0512 1399375610 55.9977
0513 1399376831 56.0262
0514 1399378051 55.3863
0515 1399379272 56.3912
0516 1399380493 56.7181
0517 1399381713 56.0388
0518 1399382934 55.3892
0519 1399384155 55.5450
0520 1399385375 55.6068
0521 1399386596 55.5070
0522 1399387817 56.0132
0523 1399389038 56.5027
0524 1399390258 56.5892
0525 1399391479 56.5628
0526 1399392700 56.3918
0527 1399393920 57.7077
0528 1399395141 57.9992
0529 1399396362 58.1564
0530 1399397583 57.2646
0531 1399398803 55.9829
0532 1399400024 55.5984
0533 1399401245 55.6003
0534 1399402465 55.6206
0535 1399403686 55.7287
0536 1399404907 55.4669
0537 1399406127 55.0045
0538 1399407348 54.8407
0539 1399408569 55.3461
0540 1399409790 55.9240
0541 1399411010 55.8969
0542 1399412231 55.6586
0543 1399413452 55.1369
0544 1399414672 55.3210
0545 1399415893 55.5015
0546 1399417114 55.8591
0547 1399418334 55.5052
0548 1399419555 55.1950
0549 1399420776 55.4718
0550 1399421997 55.5929
0551 1399423217 55.3133
0552 1399424438 55.4687
0553 1399425659 55.6629
0554 1399426879 56.1329
0555 1399428100 55.7864
0556 1399429321 55.7506
0557 1399430541 55.5278
0558 1399431762 55.5465
0559 1399432983 55.8047
0560 1399434204 55.7550
0561 1399435424 55.4017
0562 1399436645 54.9458
0563 1399437866 55.0076
0564 1399439086 55.4288
0565 1399440307 55.7697
0566 1399441528 57.2043
0567 1399442749 55.7665
0568 1399443969 55.6644
0569 1399445190 55.1164
0570 1399446411 55.2752
0571 1399447631 55.2439
0572 1399448852 55.6003
0573 1399450073 55.7394
0574 1399451293 55.0732
0575 1399452514 54.8813
0576 1399453735 55.3600
0577 1399454956 54.9043
0578 1399456176 55.1812
0579 1399457397 55.1902
0580 1399458618 55.0878
0581 1399459838 54.6421
0582 1399461059 54.6094
0583 1399462280 55.1808
0584 1399463500 55.6365
0585 1399464721 54.8803
0586 1399465942 55.4206
0587 1399467163 59.7117
0588 1399468383 56.1413
0589 1399469604 54.9416
0590 1399470825 54.9462
0591 1399472045 55.3102
0592 1399473266 54.7014
0593 1399474487 54.8121
0594 1399475708 54.7456
0595 1399476928 55.3857
0596 1399478149 55.2992
0597 1399479370 54.9577
0598 1399480590 55.0447
0599 1399481811 55.8257
0600 1399483032 54.7086
0601 1399484252 55.3119
0602 1399485473 55.3444
0603 1399486694 54.7487
0604 1399487915 54.7769
0605 1399489135 54.5806
0606 1399490356 55.0830
0607 1399491577 54.5754
0608 1399492797 55.1857
0609 1399494018 55.3141
0610 1399495239 55.6532
0611 1399496459 54.9949
0612 1399497680 55.5066
0613 1399498901 56.7495
0614 1399500122 55.7373
0615 1399501342 56.8376
0616 1399502563 59.7165
0617 1399503784 59.2161
0618 1399505004 56.7827
0619 1399506225 55.2095
0620 1399507446 54.8557
0621 1399508666 55.1916
0622 1399509887 55.1604
0623 1399511108 55.6997
0624 1399512329 55.1863
0625 1399513549 54.7928
0626 1399514770 55.5011
0627 1399515991 54.7087
0628 1399517211 55.2570
0629 1399518432 54.6845
0630 1399519653 55.2063
0631 1399520874 54.6345
0632 1399522094 54.8999
0633 1399523315 55.2114
0634 1399524536 56.2845
0635 1399525756 55.7767
0636 1399526977 55.2371
0637 1399528198 55.2118
0638 1399529418 55.3283
0639 1399530639 54.8799
0640 1399531860 55.2892
0641 1399533081 55.7850
0642 1399534301 55.1567
0643 1399535522 55.7257
0644 1399536743 55.7317
0645 1399537963 55.9766
0646 1399539184 56.5452
0647 1399540405 55.7355
0648 1399541625 55.3801
0649 1399542846 55.4135
0650 1399544067 55.3866
0651 1399545288 55.4382
0652 1399546508 55.7865
0653 1399547729 56.1928
0654 1399548950 55.5996
0655 1399550170 55.3056
0656 1399551391 55.4264
0657 1399552612 55.3456
0658 1399553833 55.7964
0659 1399555053 56.9098
0660 1399556274 55.8327
0661 1399557495 55.5601
0662 1399558715 55.5545
0663 1399559936 56.0179
0664 1399561157 55.8769
0665 1399562377 58.3080
0666 1399563598 58.8421
0667 1399564819 55.6535
0668 1399566040 55.0027
0669 1399567260 55.2186
0670 1399568481 55.2270
0671 1399569702 56.1598
0672 1399570922 56.3801
0673 1399572143 55.3656
0674 1399573364 55.8003
0675 1399574584 55.6604
0676 1399575805 55.0439
0677 1399577026 55.3820
0678 1399578247 56.4700
0679 1399579467 55.4117
0680 1399580688 54.7797
0681 1399581909 55.3623
0682 1399583129 55.5959
0683 1399584350 56.0422
0684 1399585571 56.2165
0685 1399586791 55.8738
0686 1399588012 56.1292
0687 1399589233 55.1956
0688 1399590454 55.9722
0689 1399591674 56.0659
0690 1399592895 56.9402
0691 1399594116 56.8439
0692 1399595336 55.4509
0693 1399596557 55.6599
0694 1399597778 55.5552
0695 1399598999 55.8094
0696 1399600219 56.1423
0697 1399601440 55.8459
0698 1399602661 55.1687
0699 1399603881 55.9903
0700 1399605102 56.6897
0701 1399606323 56.2973
0702 1399607543 56.1530
0703 1399608764 56.0542
0704 1399609985 56.1176
0705 1399611206 55.3399
0706 1399612426 56.2413
0707 1399613647 55.8809
0708 1399614868 56.9885
0709 1399616088 57.6299
0710 1399617309 56.6272
0711 1399618530 56.5947
0712 1399619750 56.4899
0713 1399620971 56.6217
0714 1399622192 56.7879
0715 1399623413 58.7361
0716 1399624633 58.1864
0717 1399625854 56.4911
0718 1399627075 56.8934
0719 1399628295 56.3119
0720 1399629516 56.4334
0721 1399630737 57.1748
0722 1399631958 57.1867
0723 1399633178 56.6383
0724 1399634399 56.8066
0725 1399635620 57.3198
0726 1399636840 57.6201
0727 1399638061 57.8768
0728 1399639282 56.5068
0729 1399640502 56.7051
0730 1399641723 56.8211
0731 1399642944 56.9622
0732 1399644165 57.0484
0733 1399645385 57.0991
0734 1399646606 57.9300
0735 1399647827 57.8053
0736 1399649047 57.5375
0737 1399650268 57.3195
0738 1399651489 56.8748
0739 1399652709 56.6894
0740 1399653930 57.8012
0741 1399655151 57.8531
0742 1399656372 56.8989
0743 1399657592 57.2670
0744 1399658813 57.7595
0745 1399660034 58.4350
0746 1399661254 57.7753
0747 1399662475 58.2107
0748 1399663696 57.8185
0749 1399664916 57.9892
0750 1399666137 57.7235
0751 1399667358 58.4976
0752 1399668579 58.8073
0753 1399669799 59.3803
0754 1399671020 58.1078
0755 1399672241 57.9124
0756 1399673461 58.4252
0757 1399674682 58.3545
0758 1399675903 59.0134
0759 1399677124 58.8661
0760 1399678344 58.4023
0761 1399679565 58.4409
0762 1399680786 59.1138
0763 1399682006 58.7265
0764 1399683227 58.9191
0765 1399684448 61.2528
0766 1399685668 58.7959
0767 1399686889 58.5975
0768 1399688110 58.6620
0769 1399689331 58.6268
0770 1399690551 58.8726
0771 1399691772 59.7374
0772 1399692993 59.5111
0773 1399694213 58.8563
0774 1399695434 59.2459
0775 1399696655 58.4834
0776 1399697875 58.2946
0777 1399699096 59.6223
0778 1399700317 59.4434
0779 1399701538 59.6093
0780 1399702758 59.1329
0781 1399703979 58.7316
0782 1399705200 59.3576
0783 1399706420 59.4795
0784 1399707641 60.0656
0785 1399708862 59.6284
0786 1399710083 59.4291
0787 1399711303 59.7467
0788 1399712524 59.6384
0789 1399713745 59.6421
0790 1399714965 60.2848
0791 1399716186 60.4807
0792 1399717407 59.7301
0793 1399718627 62.1269
0794 1399719848 61.8898
0795 1399721069 60.0926
0796 1399722290 60.4528
0797 1399723510 60.2963
0798 1399724731 60.5365
0799 1399725952 60.3157
0800 1399727172 60.3003
0801 1399728393 60.5704
0802 1399729614 60.2064
0803 1399730834 60.1498
0804 1399732055 60.4836
0805 1399733276 60.5821
0806 1399734497 60.1690
0807 1399735717 60.6741
0808 1399736938 60.6486
0809 1399738159 60.6185
0810 1399739379 60.6093
0811 1399740600 60.3694
0812 1399741821 60.7102
0813 1399743041 61.3968
0814 1399744262 62.9330
0815 1399745483 64.1953
0816 1399746704 61.2367
0817 1399747924 60.9989
0818 1399749145 61.1938
0819 1399750366 60.7912
0820 1399751586 61.8939
0821 1399752807 61.4594
0822 1399754028 61.6141
0823 1399755249 61.3759
0824 1399756469 61.1497
0825 1399757690 61.7935
0826 1399758911 62.3611
0827 1399760131 61.3608
0828 1399761352 62.0465
0829 1399762573 61.5781
0830 1399763793 61.6731
0831 1399765014 61.6701
0832 1399766235 62.2587
0833 1399767456 62.9944
0834 1399768676 61.8030
0835 1399769897 61.7326
0836 1399771118 62.2025
0837 1399772338 61.1404
0838 1399773559 62.6585
0839 1399774780 62.8257
0840 1399776000 61.9612
0841 1399777221 62.7311
0842 1399778442 62.8250
0843 1399779663 62.7321
0844 1399780883 62.8453
0845 1399782104 62.2823
0846 1399783325 62.7822
0847 1399784545 62.4198
0848 1399785766 62.9386
0849 1399786987 62.9708
0850 1399788208 62.8270
0851 1399789428 62.6596
0852 1399790649 63.5592
0853 1399791870 67.6423
0854 1399793090 65.4227
0855 1399794311 63.2424
0856 1399795532 62.6386
0857 1399796752 63.9978
0858 1399797973 64.5427
0859 1399799194 64.0417
0860 1399800415 63.9468
0861 1399801635 64.4551
0862 1399802856 63.7908
0863 1399804077 62.7788
0864 1399805297 65.4864
0865 1399806518 65.2404
0866 1399807739 64.4450
0867 1399808959 64.1403
0868 1399810180 64.3143
0869 1399811401 63.9956
0870 1399812622 63.8378
0871 1399813842 63.5832
0872 1399815063 64.2444
0873 1399816284 64.5096
0874 1399817504 64.2124
0875 1399818725 64.8470
0876 1399819946 65.3949
0877 1399821166 64.4916
0878 1399822387 64.2867
0879 1399823608 64.5154
0880 1399824829 64.3767
0881 1399826049 64.5937
0882 1399827270 64.9012
0883 1399828491 65.5782
0884 1399829711 65.3000
0885 1399830932 64.7003
0886 1399832153 65.2270
0887 1399833374 64.7272
0888 1399834594 65.5394
0889 1399835815 65.4564
0890 1399837036 65.7636
0891 1399838256 66.0719
0892 1399839477 65.3776
0893 1399840698 65.7573
0894 1399841918 65.8456
0895 1399843139 66.0381
0896 1399844360 66.1306
0897 1399845581 66.6160
0898 1399846801 65.1609
0899 1399848022 65.1728
0900 1399849243 65.2427
0901 1399850463 65.6694
0902 1399851684 65.6660
0903 1399852905 65.6220
0904 1399854125 65.6680
0905 1399855346 65.3805
0906 1399856567 65.6928
0907 1399857788 68.5261
0908 1399859008 66.9332
0909 1399860229 65.6148
0910 1399861450 66.0027
0911 1399862670 65.9516
0912 1399863891 65.1991
0913 1399865112 66.7854
0914 1399866333 69.2570
0915 1399867553 67.1131
0916 1399868774 65.9732
0917 1399869995 66.5257
0918 1399871215 66.3073
0919 1399872436 66.8184
0920 1399873657 66.9954
0921 1399874877 66.5518
0922 1399876098 66.8741
0923 1399877319 66.8990
0924 1399878540 66.9102
0925 1399879760 66.8549
0926 1399880981 67.3585
0927 1399882202 67.7096
0928 1399883422 66.4386
0929 1399884643 66.7345
0930 1399885864 67.2157
0931 1399887084 67.5884
0932 1399888305 67.1598
0933 1399889526 67.2022
0934 1399890747 66.9575
0935 1399891967 67.3156
0936 1399893188 67.7438
0937 1399894409 67.5626
0938 1399895629 67.7852
0939 1399896850 70.2860
0940 1399898071 67.5863
0941 1399899291 67.7810
0942 1399900512 67.6091
0943 1399901733 67.9224
0944 1399902954 68.0405
0945 1399904174 68.2766
0946 1399905395 68.1567
0947 1399906616 67.7917
0948 1399907836 67.8966
0949 1399909057 67.1860
0950 1399910278 67.5356
0951 1399911499 68.9930
0952 1399912719 68.4586
0953 1399913940 68.7383
0954 1399915161 68.3538
0955 1399916381 68.2990
0956 1399917602 68.6958
0957 1399918823 69.6741
0958 1399920043 68.4057
0959 1399921264 68.4926
0960 1399922485 68.8360
0961 1399923706 69.0651
0962 1399924926 69.6635
0963 1399926147 69.9543
0964 1399927368 69.9493
0965 1399928588 69.0607
0966 1399929809 69.1395
0967 1399931030 68.6801
0968 1399932250 70.0336
0969 1399933471 70.2266
0970 1399934692 70.6076
0971 1399935913 69.9688
0972 1399937133 68.9517
0973 1399938354 68.5356
0974 1399939575 69.3803
0975 1399940795 69.1794
0976 1399942016 69.2137
0977 1399943237 69.7840
0978 1399944458 70.4712
0979 1399945678 69.9269
0980 1399946899 70.2341
0981 1399948120 71.2162
0982 1399949340 70.9666
0983 1399950561 69.9236
0984 1399951782 69.4794
0985 1399953002 70.3652
0986 1399954223 69.9308
0987 1399955444 70.3375
0988 1399956665 70.9844
0989 1399957885 72.6151
0990 1399959106 70.6724
0991 1399960327 70.5641
0992 1399961547 70.6599
0993 1399962768 71.6390
0994 1399963989 70.4431
0995 1399965209 70.8481
0996 1399966430 71.3043
0997 1399967651 71.1506
0998 1399968872 70.4703
0999 1399970092 72.0232
1000 1399971313 72.9793
1001 1399972534 74.7928
1002 1399973754 72.9761
1003 1399974975 72.6897
1004 1399976196 71.4357
1005 1399977416 72.5152
1006 1399978637 75.6751
1007 1399979858 93.6295
1008 1399981079 107.4305
1009 1399982299 76.7520
1010 1399983520 73.5807
1011 1399984741 104.1097
1012 1399985961 189.8500
1013 1399987182 101.6439
1014 1399988403 87.0717
1015 1399989624 74.3981
1016 1399990844 77.1370
1017 1399992065 80.3178
1018 1399993286 79.7016
1019 1399994506 81.1723
1020 1399995727 91.3740
1021 1399996948 869.1253
1022 1399998168 1274.2740
1023 1399999389 136.6528
1024 1400000610 87.3408
1025 1400001831 93.2877
1026 1400003051 97.5675
1027 1400004272 87.7068
1028 1400005493 80.9499
1029 1400006713 78.7762
1030 1400007934 76.8775
1031 1400009155 75.7838
1032 1400010375 74.7563
1033 1400011596 74.1996
1034 1400012817 74.0369
1035 1400014038 87.8796
1036 1400015258 86.4650
1037 1400016479 72.6962
1038 1400017700 72.1467
1039 1400018920 72.6129
1040 1400020141 72.6619
1041 1400021362 73.4161
1042 1400022583 72.5253
1043 1400023803 73.0581
1044 1400025024 72.7214
1045 1400026245 71.4147
1046 1400027465 71.6388
1047 1400028686 71.4171
1048 1400029907 71.6838
1049 1400031127 71.3633
1050 1400032348 71.8189
1051 1400033569 71.7523
1052 1400034790 71.6295
1053 1400036010 70.9994
1054 1400037231 71.4527
1055 1400038452 71.2536
1056 1400039672 71.8302
1057 1400040893 72.0338
1058 1400042114 71.2493
1059 1400043334 70.2387
1060 1400044555 69.9636
1061 1400045776 70.9212
1062 1400046997 71.0331
1063 1400048217 72.3199
1064 1400049438 70.2965
1065 1400050659 69.4798
1066 1400051879 69.3341
1067 1400053100 69.4571
1068 1400054321 69.4625
1069 1400055541 69.9366
1070 1400056762 69.0051
1071 1400057983 69.0107
1072 1400059204 69.6745
1073 1400060424 70.0736
1074 1400061645 69.0102
1075 1400062866 68.6423
1076 1400064086 68.8407
1077 1400065307 69.3023
1078 1400066528 68.8069
1079 1400067749 68.8244
1080 1400068969 68.8691
1081 1400070190 69.0534
1082 1400071411 69.6366
1083 1400072631 68.3060
1084 1400073852 68.5069
1085 1400075073 68.7876
1086 1400076293 68.8844
1087 1400077514 68.9838
1088 1400078735 69.2673
1089 1400079956 68.7401
1090 1400081176 68.5464
1091 1400082397 68.2894
1092 1400083618 68.1929
1093 1400084838 70.7786
1094 1400086059 69.6096
1095 1400087280 68.3432
1096 1400088500 68.0785
1097 1400089721 68.2876
1098 1400090942 67.7595
1099 1400092163 68.5634
1100 1400093383 68.6591
1101 1400094604 68.5935
1102 1400095825 67.8863
1103 1400097045 69.0053
1104 1400098266 67.6667
1105 1400099487 67.9461
1106 1400100708 68.3384
1107 1400101928 67.8517
1108 1400103149 67.7134
1109 1400104370 67.4752
1110 1400105590 67.8834
1111 1400106811 67.6682
1112 1400108032 68.5839
1113 1400109252 69.9029
1114 1400110473 67.8649
1115 1400111694 67.4490
1116 1400112915 66.7933
1117 1400114135 67.0812
1118 1400115356 66.9629
1119 1400116577 67.2266
1120 1400117797 67.8554
1121 1400119018 66.8019
1122 1400120239 66.9615
1123 1400121459 66.5905
1124 1400122680 67.4211
1125 1400123901 67.9612
1126 1400125122 67.2614
1127 1400126342 66.7561
1128 1400127563 66.4588
1129 1400128784 66.6344
1130 1400130004 66.7521
1131 1400131225 66.9897
1132 1400132446 66.4560
1133 1400133666 66.4929
1134 1400134887 66.4489
1135 1400136108 66.4992
1136 1400137329 66.1892
1137 1400138549 66.4471
1138 1400139770 66.2391
1139 1400140991 66.6846
1140 1400142211 67.0681
1141 1400143432 66.0742
1142 1400144653 65.7290
1143 1400145874 66.7088
1144 1400147094 66.4651
1145 1400148315 66.5372
1146 1400149536 65.7885
1147 1400150756 66.0197
1148 1400151977 65.6173
1149 1400153198 65.8629
1150 1400154418 67.7180
1151 1400155639 66.5182
1152 1400156860 65.3972
1153 1400158081 66.3276
1154 1400159301 65.1362
1155 1400160522 67.4272
1156 1400161743 68.7989
1157 1400162963 65.8368
1158 1400164184 65.1676
1159 1400165405 64.4384
1160 1400166625 65.0625
1161 1400167846 65.3113
1162 1400169067 65.7947
1163 1400170288 66.8060
1164 1400171508 65.3598
1165 1400172729 65.0994
1166 1400173950 65.2787
1167 1400175170 65.0340
1168 1400176391 64.7055
1169 1400177612 64.9912
1170 1400178833 64.5051
1171 1400180053 64.7215
1172 1400181274 64.8916
1173 1400182495 64.5782
1174 1400183715 64.4895
1175 1400184936 64.0969
1176 1400186157 65.0791
1177 1400187377 64.2585
1178 1400188598 64.7490
1179 1400189819 64.3029
1180 1400191040 64.3439
1181 1400192260 64.6892
1182 1400193481 64.0303
1183 1400194702 63.6851
1184 1400195922 64.2704
1185 1400197143 64.5654
1186 1400198364 63.8048
1187 1400199584 64.8149
1188 1400200805 64.1916
1189 1400202026 63.1735
1190 1400203247 63.8260
1191 1400204467 63.3703
1192 1400205688 63.3282
1193 1400206909 63.1559
1194 1400208129 64.1465
1195 1400209350 63.4933
1196 1400210571 63.4253
1197 1400211791 63.3293
1198 1400213012 63.5293
1199 1400214233 64.5515
1200 1400215454 64.7327
1201 1400216674 63.2030
1202 1400217895 63.1767
1203 1400219116 63.3054
1204 1400220336 63.0950
1205 1400221557 63.5019
1206 1400222778 63.4019
1207 1400223999 62.9460
1208 1400225219 62.7844
1209 1400226440 62.6303
1210 1400227661 62.1992
1211 1400228881 62.4385
1212 1400230102 63.8826
1213 1400231323 62.9247
1214 1400232543 62.7143
1215 1400233764 62.5998
1216 1400234985 62.4085
1217 1400236206 62.3811
1218 1400237426 62.2160
1219 1400238647 62.8662
1220 1400239868 62.0687
1221 1400241088 61.8163
1222 1400242309 61.7520
1223 1400243530 61.8566
1224 1400244750 62.4165
1225 1400245971 62.0576
1226 1400247192 61.9429
1227 1400248413 61.7923
1228 1400249633 61.4261
1229 1400250854 62.1411
1230 1400252075 61.9684
1231 1400253295 62.3044
1232 1400254516 61.6679
1233 1400255737 61.6229
1234 1400256958 61.7835
1235 1400258178 60.9890
1236 1400259399 61.3168
1237 1400260620 61.3533
1238 1400261840 61.1986
1239 1400263061 61.2991
1240 1400264282 60.9156
1241 1400265502 60.9003
1242 1400266723 60.8354
1243 1400267944 61.1384
1244 1400269165 61.2501
1245 1400270385 60.8571
1246 1400271606 60.9162
1247 1400272827 60.7644
1248 1400274047 60.6612
1249 1400275268 61.6738
1250 1400276489 62.5064
1251 1400277709 60.7589
1252 1400278930 60.4708
1253 1400280151 60.7405
1254 1400281372 60.4479
1255 1400282592 61.8816
1256 1400283813 62.1616
1257 1400285034 60.9970
1258 1400286254 60.3428
1259 1400287475 60.3971
1260 1400288696 60.4197
1261 1400289916 60.7707
1262 1400291137 65.3422
1263 1400292358 62.0906
1264 1400293579 60.1134
1265 1400294799 60.1724
1266 1400296020 60.1748
1267 1400297241 59.8353
1268 1400298461 59.8856
1269 1400299682 60.0944
1270 1400300903 59.9962
1271 1400302124 60.0391
1272 1400303344 60.6466
1273 1400304565 59.9772
1274 1400305786 59.8211
1275 1400307006 59.7645
1276 1400308227 59.7078
1277 1400309448 59.0797
1278 1400310668 59.1855
1279 1400311889 58.9343
1280 1400313110 59.2882
1281 1400314331 59.6596
1282 1400315551 59.9234
1283 1400316772 59.3908
1284 1400317993 59.0310
1285 1400319213 58.9509
1286 1400320434 59.6589
1287 1400321655 59.8955
1288 1400322875 59.2017
1289 1400324096 58.6599
1290 1400325317 59.0515
1291 1400326538 59.0173
1292 1400327758 59.4160
1293 1400328979 59.5517
1294 1400330200 58.4262
1295 1400331420 58.5384
1296 1400332641 58.3915
1297 1400333862 58.8019
1298 1400335083 58.8406
1299 1400336303 59.1847
1300 1400337524 58.7084
1301 1400338745 58.6338
1302 1400339965 58.5273
1303 1400341186 57.9817
1304 1400342407 58.7240
1305 1400343627 60.0395
1306 1400344848 59.2003
1307 1400346069 58.5871
1308 1400347290 58.2271
1309 1400348510 57.8705
1310 1400349731 57.7570
1311 1400350952 58.2948
1312 1400352172 58.9114
1313 1400353393 58.7598
1314 1400354614 58.0127
1315 1400355834 57.7911
1316 1400357055 57.9676
1317 1400358276 57.8242
1318 1400359497 57.7150
1319 1400360717 57.8020
1320 1400361938 57.7469
1321 1400363159 57.5540
1322 1400364379 57.5642
1323 1400365600 57.5049
1324 1400366821 57.5185
1325 1400368041 57.9687
1326 1400369262 57.1850
1327 1400370483 57.4504
1328 1400371704 57.8345
1329 1400372924 57.1713
1330 1400374145 58.1209
1331 1400375366 57.3844
1332 1400376586 57.7936
1333 1400377807 58.5369
1334 1400379028 58.1604
1335 1400380249 57.6992
1336 1400381469 57.7420
1337 1400382690 57.6485
1338 1400383911 57.6987
1339 1400385131 56.7050
1340 1400386352 57.0690
1341 1400387573 57.3788
1342 1400388793 57.6843
1343 1400390014 57.3166
1344 1400391235 56.7125
1345 1400392456 56.9602
1346 1400393676 57.2504
1347 1400394897 56.5801
1348 1400396118 57.1235
1349 1400397338 57.8153
1350 1400398559 57.6561
1351 1400399780 56.6618
1352 1400401000 56.9601
1353 1400402221 57.3184
1354 1400403442 56.9136
1355 1400404663 58.0432
1356 1400405883 57.4023
1357 1400407104 56.8747
1358 1400408325 56.8094
1359 1400409545 56.4887
1360 1400410766 56.6889
1361 1400411987 57.7062
1362 1400413208 58.1447
1363 1400414428 56.5332
1364 1400415649 56.9087
1365 1400416870 56.8180
1366 1400418090 56.6826
1367 1400419311 57.5042
1368 1400420532 56.9730
1369 1400421752 56.6888
1370 1400422973 56.4257
1371 1400424194 56.5404
1372 1400425415 56.6792
1373 1400426635 56.6756
1374 1400427856 57.3025
1375 1400429077 56.8893
1376 1400430297 56.6165
1377 1400431518 56.1346
1378 1400432739 56.0242
1379 1400433959 56.0528
1380 1400435180 57.2001
1381 1400436401 56.5581
1382 1400437622 56.6206
1383 1400438842 56.5824
1384 1400440063 55.9576
1385 1400441284 56.7533
1386 1400442504 57.1259
1387 1400443725 56.9021
1388 1400444946 56.2848
1389 1400446166 56.6205
1390 1400447387 56.4167
1391 1400448608 56.2731
1392 1400449829 56.3122
1393 1400451049 56.1115
1394 1400452270 56.3773
1395 1400453491 55.9307
1396 1400454711 56.4769
1397 1400455932 56.8263
1398 1400457153 57.1126
1399 1400458374 56.3968
1400 1400459594 56.4333
1401 1400460815 56.2513
1402 1400462036 56.1696
1403 1400463256 56.2250
1404 1400464477 57.1058
1405 1400465698 57.6363
1406 1400466918 57.1588
1407 1400468139 57.8837
1408 1400469360 56.7501
1409 1400470581 56.0927
1410 1400471801 56.3945
1411 1400473022 58.6313
1412 1400474243 58.1334
1413 1400475463 55.9617
1414 1400476684 56.0662
1415 1400477905 55.9688
1416 1400479125 55.8150
1417 1400480346 56.2124
1418 1400481567 56.0923
1419 1400482788 56.0533
1420 1400484008 55.5522
1421 1400485229 56.0441
1422 1400486450 56.3562
1423 1400487670 56.6074
1424 1400488891 56.5809
1425 1400490112 56.1145
1426 1400491333 56.1677
1427 1400492553 56.8297
1428 1400493774 56.6865
1429 1400494995 60.7976
1430 1400496215 69.6113
1431 1400497436 78.3174
1432 1400498657 72.6427
1433 1400499877 61.7843
1434 1400501098 56.8816
1435 1400502319 56.6247
1436 1400503540 57.2931
1437 1400504760 56.5698
1438 1400505981 56.3036
1439 1400507202 55.8354
1440 1400508422 56.6833
1441 1400509643 56.4007
1442 1400510864 56.6789
1443 1400512084 56.2910
1444 1400513305 56.2786
1445 1400514526 56.2281
1446 1400515747 55.8569
1447 1400516967 56.8077
1448 1400518188 56.7449
1449 1400519409 56.0842
1450 1400520629 55.8757
1451 1400521850 56.4980
1452 1400523071 55.7671
1453 1400524291 56.3085
1454 1400525512 56.7836
1455 1400526733 55.9992
1456 1400527954 56.0211
1457 1400529174 56.3298
1458 1400530395 56.2836
1459 1400531616 57.0330
1460 1400532836 56.8021
1461 1400534057 59.8962
1462 1400535278 56.8385
1463 1400536499 56.6008
1464 1400537719 56.3157
1465 1400538940 55.9735
1466 1400540161 56.4385
1467 1400541381 56.8424
1468 1400542602 57.0386
1469 1400543823 56.6986
1470 1400545043 56.4748
1471 1400546264 56.1589
1472 1400547485 57.0015
1473 1400548706 57.4020
1474 1400549926 57.5022
1475 1400551147 56.5539
1476 1400552368 56.9441
1477 1400553588 56.5965
1478 1400554809 56.7153
1479 1400556030 57.1274
1480 1400557250 57.0949
1481 1400558471 56.4671
1482 1400559692 56.1475
1483 1400560913 56.5790
1484 1400562133 56.8756
1485 1400563354 56.3899
1486 1400564575 57.1997
1487 1400565795 56.7178
1488 1400567016 56.8872
1489 1400568237 58.1415
1490 1400569458 59.6991
1491 1400570678 59.7572
1492 1400571899 58.6198
1493 1400573120 57.5633
1494 1400574340 57.2158
1495 1400575561 56.9667
1496 1400576782 56.7233
1497 1400578002 56.7541
1498 1400579223 57.6374
1499 1400580444 56.8794
1500 1400581665 56.7028
1501 1400582885 57.1432
1502 1400584106 56.4534
1503 1400585327 56.4157
1504 1400586547 58.2555
1505 1400587768 57.7576
1506 1400588989 57.4664
1507 1400590209 56.9180
1508 1400591430 56.3235
1509 1400592651 56.8024
1510 1400593872 58.8193
1511 1400595092 60.9610
1512 1400596313 57.5207
1513 1400597534 57.4646
1514 1400598754 56.8362
1515 1400599975 56.9165
1516 1400601196 57.5802
1517 1400602416 57.7102
1518 1400603637 57.3033
1519 1400604858 57.2022
1520 1400606079 57.3819
1521 1400607299 57.9885
1522 1400608520 58.2022
1523 1400609741 58.2027
1524 1400610961 57.0930
1525 1400612182 58.1808
1526 1400613403 57.4203
1527 1400614624 57.6595
1528 1400615844 57.0729
1529 1400617065 57.7985
1530 1400618286 57.0778
1531 1400619506 57.1032
1532 1400620727 56.7417
1533 1400621948 57.3669
1534 1400623168 57.0369
1535 1400624389 57.7846
1536 1400625610 58.5453
1537 1400626831 57.2636
1538 1400628051 57.2779
1539 1400629272 57.6643
1540 1400630493 57.0455
1541 1400631713 57.4552
1542 1400632934 57.4275
1543 1400634155 57.2145
1544 1400635375 57.8996
1545 1400636596 57.6408
1546 1400637817 57.1643
1547 1400639038 58.0956
1548 1400640258 58.4564
1549 1400641479 57.5380
1550 1400642700 57.3734
1551 1400643920 57.6605
1552 1400645141 57.9076
1553 1400646362 59.4882
1554 1400647583 58.9882
1555 1400648803 57.4667
1556 1400650024 57.8159
1557 1400651245 58.1103
1558 1400652465 57.5909
1559 1400653686 57.3755
1560 1400654907 57.5886
1561 1400656127 57.9764
1562 1400657348 57.7169
1563 1400658569 57.3090
1564 1400659790 57.4248
1565 1400661010 57.1268
1566 1400662231 57.5104
1567 1400663452 58.0474
1568 1400664672 57.9581
1569 1400665893 57.9778
1570 1400667114 58.2934
1571 1400668334 58.3143
1572 1400669555 58.3529
1573 1400670776 59.3240
1574 1400671997 58.4283
1575 1400673217 58.9914
1576 1400674438 58.7759
1577 1400675659 57.9975
1578 1400676879 58.1251
1579 1400678100 57.5817
1580 1400679321 56.9497
1581 1400680541 57.3448
1582 1400681762 57.1568
1583 1400682983 57.7941
1584 1400684204 57.7579
1585 1400685424 58.2566
1586 1400686645 57.7787
1587 1400687866 57.4004
1588 1400689086 57.6080
1589 1400690307 57.6500
1590 1400691528 58.4377
1591 1400692749 60.8345
1592 1400693969 79.0950
1593 1400695190 84.5636
1594 1400696411 58.0414
1595 1400697631 57.5745
1596 1400698852 57.6078
1597 1400700073 57.5630
1598 1400701293 58.0602
1599 1400702514 58.1365
1600 1400703735 57.8640
1601 1400704956 57.4377
1602 1400706176 58.2227
1603 1400707397 58.6923
1604 1400708618 57.5137
1605 1400709838 56.9577
1606 1400711059 57.5391
1607 1400712280 57.4204
1608 1400713500 57.2995
1609 1400714721 58.3535
1610 1400715942 61.7835
1611 1400717163 59.5764
1612 1400718383 57.2367
1613 1400719604 57.6819
1614 1400720825 57.0968
1615 1400722045 57.6306
1616 1400723266 57.9975
1617 1400724487 57.6841
1618 1400725708 57.7779
1619 1400726928 58.4115
1620 1400728149 57.5298
1621 1400729370 57.4778
1622 1400730590 56.7730
1623 1400731811 57.4667
1624 1400733032 57.5628
1625 1400734252 57.2930
1626 1400735473 57.2375
1627 1400736694 57.2012
1628 1400737915 58.0103
1629 1400739135 57.3175
1630 1400740356 57.0428
1631 1400741577 57.4734
1632 1400742797 57.2523
1633 1400744018 56.9197
1634 1400745239 57.4589
1635 1400746459 57.4362
1636 1400747680 57.4016
1637 1400748901 56.0443
1638 1400750122 56.6139
1639 1400751342 56.6073
1640 1400752563 56.5547
1641 1400753784 57.0369
1642 1400755004 56.6827
1643 1400756225 56.8414
1644 1400757446 56.6350
1645 1400758666 56.4715
1646 1400759887 56.4171
1647 1400761108 56.7393
1648 1400762329 56.5304
1649 1400763549 56.6676
1650 1400764770 56.6174
1651 1400765991 55.9271
1652 1400767211 56.1922
1653 1400768432 56.6603
1654 1400769653 56.1004
1655 1400770874 55.5193
1656 1400772094 56.0126
1657 1400773315 55.9117
1658 1400774536 55.9232
1659 1400775756 56.5923
1660 1400776977 59.1322
1661 1400778198 56.3950
1662 1400779418 56.0232
1663 1400780639 55.6264
1664 1400781860 56.1793
1665 1400783081 55.6212
1666 1400784301 55.7044
1667 1400785522 55.4045
1668 1400786743 55.4300
1669 1400787963 55.7219
1670 1400789184 55.7458
1671 1400790405 55.5306
1672 1400791625 55.8834
1673 1400792846 55.4015
1674 1400794067 55.3275
1675 1400795288 55.4312
1676 1400796508 55.7029
1677 1400797729 55.5512
1678 1400798950 55.4028
1679 1400800170 55.1723
1680 1400801391 54.8836
1681 1400802612 55.0545
1682 1400803833 54.2335
1683 1400805053 54.5048
1684 1400806274 54.3507
1685 1400807495 54.8618
1686 1400808715 54.0258
1687 1400809936 53.9803
1688 1400811157 54.2671
1689 1400812377 53.9282
1690 1400813598 55.0087
1691 1400814819 54.8425
1692 1400816040 54.1310
1693 1400817260 53.8642
1694 1400818481 53.8014
1695 1400819702 53.8549
1696 1400820922 53.8496
1697 1400822143 53.5127
1698 1400823364 53.8478
1699 1400824584 53.1942
1700 1400825805 53.2621
1701 1400827026 53.2033
1702 1400828247 53.4909
1703 1400829467 53.7743
1704 1400830688 52.9168
1705 1400831909 53.0631
1706 1400833129 52.6076
1707 1400834350 53.2137
1708 1400835571 52.6908
1709 1400836791 52.7300
1710 1400838012 53.6793
1711 1400839233 52.4069
1712 1400840454 52.1837
1713 1400841674 53.0258
1714 1400842895 52.6549
1715 1400844116 52.2672
1716 1400845336 52.3315
1717 1400846557 51.9223
1718 1400847778 51.5884
1719 1400848999 51.3808
1720 1400850219 51.5744
1721 1400851440 51.1537
1722 1400852661 52.3128
1723 1400853881 51.6908
1724 1400855102 51.2722
1725 1400856323 50.8927
1726 1400857543 51.0447
1727 1400858764 51.2302
1728 1400859985 51.3874
1729 1400861206 51.0484
1730 1400862426 50.9890
1731 1400863647 50.7709
1732 1400864868 51.1132
1733 1400866088 50.2267
1734 1400867309 50.3807
1735 1400868530 50.7755
1736 1400869750 50.1359
1737 1400870971 49.7802
1738 1400872192 50.3077
1739 1400873413 49.9451
1740 1400874633 49.7956
1741 1400875854 50.0817
1742 1400877075 49.2373
1743 1400878295 48.9668
1744 1400879516 48.8284
1745 1400880737 49.3450
1746 1400881958 49.3280
1747 1400883178 48.7464
1748 1400884399 48.4884
1749 1400885620 48.3116
1750 1400886840 48.7864
1751 1400888061 48.4902
1752 1400889282 49.1439
1753 1400890502 48.9716
1754 1400891723 48.2683
1755 1400892944 48.0599
1756 1400894165 47.7242
1757 1400895385 47.8216
1758 1400896606 47.5505
1759 1400897827 48.0337
1760 1400899047 47.8867
1761 1400900268 47.0384
1762 1400901489 47.0073
1763 1400902709 47.0202
1764 1400903930 46.6462
1765 1400905151 46.7547
1766 1400906372 47.0485
1767 1400907592 46.2590
1768 1400908813 46.1627
1769 1400910034 45.9563
1770 1400911254 45.7726
1771 1400912475 46.0692
1772 1400913696 46.4322
1773 1400914916 45.3373
1774 1400916137 45.4159
1775 1400917358 45.3394
1776 1400918579 44.9777
1777 1400919799 45.3536
1778 1400921020 45.4202
1779 1400922241 44.6225
1780 1400923461 44.3891
1781 1400924682 44.2506
1782 1400925903 44.6448
1783 1400927124 44.1682
1784 1400928344 44.2462
1785 1400929565 44.0570
1786 1400930786 43.6280
1787 1400932006 43.3057
1788 1400933227 43.0770
1789 1400934448 42.9597
1790 1400935668 43.1047
1791 1400936889 43.2417
1792 1400938110 42.6892
1793 1400939331 42.3433
1794 1400940551 42.1587
1795 1400941772 42.2552
1796 1400942993 43.2141
1797 1400944213 43.3703
1798 1400945434 42.1470
1799 1400946655 41.9812
1800 1400947875 41.6627
1801 1400949096 41.7396
1802 1400950317 41.8880
1803 1400951538 41.8570
1804 1400952758 41.3547
1805 1400953979 40.8136
1806 1400955200 40.5020
1807 1400956420 40.4909
1808 1400957641 40.2851
1809 1400958862 41.3037
1810 1400960083 40.5140
1811 1400961303 39.7503
1812 1400962524 39.9468
1813 1400963745 40.0866
1814 1400964965 39.3405
1815 1400966186 39.0465
1816 1400967407 39.0240
1817 1400968627 38.6591
1818 1400969848 38.5223
1819 1400971069 38.8972
1820 1400972290 38.1425
1821 1400973510 38.4366
1822 1400974731 38.4799
1823 1400975952 37.8848
1824 1400977172 37.3448
1825 1400978393 37.7377
1826 1400979614 37.5890
1827 1400980834 37.3541
1828 1400982055 37.1928
1829 1400983276 37.3813
1830 1400984497 36.8042
1831 1400985717 36.6145
1832 1400986938 36.6484
1833 1400988159 36.2368
1834 1400989379 36.0693
1835 1400990600 35.9225
1836 1400991821 36.1544
1837 1400993041 35.6900
1838 1400994262 35.6213
1839 1400995483 35.3448
1840 1400996704 35.2919
1841 1400997924 35.0705
1842 1400999145 35.1039
1843 1401000366 34.7779
1844 1401001586 34.5354
1845 1401002807 34.1696
1846 1401004028 34.0713
1847 1401005249 34.1179
1848 1401006469 33.9520
1849 1401007690 33.6693
1850 1401008911 33.7358
1851 1401010131 33.3038
1852 1401011352 33.5327
1853 1401012573 33.0798
1854 1401013793 32.9399
1855 1401015014 32.5628
1856 1401016235 32.4848
1857 1401017456 32.4222
1858 1401018676 32.7082
1859 1401019897 33.1912
1860 1401021118 31.8779
1861 1401022338 31.6354
1862 1401023559 31.5012
1863 1401024780 31.5019
1864 1401026000 31.5421
1865 1401027221 31.3585
1866 1401028442 30.9850
1867 1401029663 30.9407
1868 1401030883 30.2865
1869 1401032104 30.3481
1870 1401033325 30.2867
1871 1401034545 30.0541
1872 1401035766 30.0292
1873 1401036987 29.7148
1874 1401038208 29.5476
1875 1401039428 29.4021
1876 1401040649 29.0370
1877 1401041870 29.2981
1878 1401043090 29.3610
1879 1401044311 29.1496
1880 1401045532 28.4353
1881 1401046752 28.2990
1882 1401047973 28.2528
1883 1401049194 28.1673
1884 1401050415 27.8381
1885 1401051635 27.7671
1886 1401052856 27.7747
1887 1401054077 27.4211
1888 1401055297 27.1826
1889 1401056518 27.3336
1890 1401057739 27.0650
1891 1401058959 26.8692
1892 1401060180 26.7097
1893 1401061401 26.4205
1894 1401062622 26.3695
1895 1401063842 26.3352
1896 1401065063 26.0566
1897 1401066284 25.9041
1898 1401067504 25.5542
1899 1401068725 25.4939
1900 1401069946 25.3613
1901 1401071166 25.5817
1902 1401072387 25.5432
1903 1401073608 25.0914
1904 1401074829 24.6905
1905 1401076049 24.6024
1906 1401077270 24.7408
1907 1401078491 24.2748
1908 1401079711 24.5302
1909 1401080932 24.6445
1910 1401082153 24.1466
1911 1401083374 23.6662
1912 1401084594 23.5935
1913 1401085815 23.5989
1914 1401087036 23.2942
1915 1401088256 23.4106
1916 1401089477 23.1277
1917 1401090698 22.8163
1918 1401091918 22.6752
1919 1401093139 22.8131
1920 1401094360 22.4774
1921 1401095581 22.4431
1922 1401096801 22.3272
1923 1401098022 21.8723
1924 1401099243 21.9180
1925 1401100463 21.8088
1926 1401101684 21.5357
1927 1401102905 21.5139
1928 1401104125 21.2378
1929 1401105346 21.1318
1930 1401106567 20.8866
1931 1401107788 20.7080
1932 1401109008 20.6908
1933 1401110229 20.8058
1934 1401111450 20.3828
1935 1401112670 20.2906
1936 1401113891 20.0635
1937 1401115112 19.8722
1938 1401116333 19.9842
1939 1401117553 20.1006
1940 1401118774 19.7560
1941 1401119995 19.7628
1942 1401121215 19.4463
1943 1401122436 19.4071
1944 1401123657 19.2916
1945 1401124877 19.1403
1946 1401126098 19.1435
1947 1401127319 18.8356
1948 1401128540 18.7499
1949 1401129760 18.4831
1950 1401130981 18.5123
1951 1401132202 18.8305
1952 1401133422 18.8349
1953 1401134643 18.1213
1954 1401135864 18.0257
1955 1401137084 17.7273
1956 1401138305 17.5956
1957 1401139526 17.6379
1958 1401140747 17.6241
1959 1401141967 17.4596
1960 1401143188 17.1500
1961 1401144409 17.1093
1962 1401145629 16.9782
1963 1401146850 16.9402
1964 1401148071 16.9946
1965 1401149291 17.0067
1966 1401150512 16.6196
1967 1401151733 16.4413
1968 1401152954 16.2579
1969 1401154174 16.2604
1970 1401155395 16.1270
1971 1401156616 16.1434
1972 1401157836 15.9427
1973 1401159057 15.8567
1974 1401160278 15.6317
1975 1401161499 15.7202
1976 1401162719 15.6249
1977 1401163940 15.4774
1978 1401165161 15.4029
1979 1401166381 15.3242
1980 1401167602 15.2701
1981 1401168823 15.3283
1982 1401170043 15.1046
1983 1401171264 15.0558
1984 1401172485 15.0317
1985 1401173706 14.9044
1986 1401174926 14.8457
1987 1401176147 14.7892
1988 1401177368 14.4453
1989 1401178588 14.5322
1990 1401179809 14.6358
1991 1401181030 14.4479
1992 1401182250 14.1810
1993 1401183471 14.2193
1994 1401184692 14.2964
1995 1401185913 14.7700
1996 1401187133 14.3003
1997 1401188354 13.9032
1998 1401189575 13.8005
1999 1401190795 13.7796
2000 1401192016 13.6710
2001 1401193237 13.7660
2002 1401194458 13.5574
2003 1401195678 13.7024
2004 1401196899 17.1633
2005 1401198120 19.8418
2006 1401199340 13.9000
2007 1401200561 14.0897
2008 1401201782 13.7223
2009 1401203002 13.2978
2010 1401204223 13.1253
2011 1401205444 13.0771
2012 1401206665 12.9154
2013 1401207885 12.9875
2014 1401209106 12.8175
2015 1401210327 12.8426
2016 1401211547 12.8050
2017 1401212768 12.8438
2018 1401213989 12.8700
2019 1401215209 12.5779
2020 1401216430 12.6539
2021 1401217651 12.6027
2022 1401218872 12.5044
2023 1401220092 12.4408
2024 1401221313 12.3313
2025 1401222534 12.3876
2026 1401223754 12.4976
2027 1401224975 12.3538
2028 1401226196 12.3141
2029 1401227416 12.2490
2030 1401228637 12.2267
2031 1401229858 12.1153
2032 1401231079 12.0332
2033 1401232299 12.1797
2034 1401233520 12.0297
2035 1401234741 12.0785
2036 1401235961 11.9654
2037 1401237182 12.0778
2038 1401238403 12.0511
2039 1401239624 11.9975
2040 1401240844 12.0243
2041 1401242065 11.9446
2042 1401243286 12.1348
2043 1401244506 11.8487
2044 1401245727 11.8801
2045 1401246948 12.0411
2046 1401248168 11.9937
2047 1401249389 11.8853
