# File: 20-06-08T225342.ast
# NOTEA     = None Attached.  RTLSDR Dongle Test
# NOTEB     = Spectral Integration
# OBSERVER  = Science Aficionado
# DEVICE    = rtlsdr=0
# DATADIR   = ../data/
# SITE      = None Attached.  RTLSDR Dongle Test
# CITY      = Green Bank
# REGION    = West Virginia
# COUNTRY   = US
# TELTYPE   = Bubble Wrap  Horn
# FRAME     = TOPO
# GAIN1     = 49.0
# GAIN2     = 11.0
# GAIN3     = 11.0
# GAIN4     = 0.0
# Count     = 10000
# CenterFreq= 1400000000.0
# Bandwidth = 2500000.0
# Duration  = 83.900701
# DeltaX    = 5859.375
# TSYS      = 200.0
# TRX       = 100.0
# TRMS      = 2.0
# TINT      = 1.0
# KPERC     = 100.0
# GAINFACT  = 1.0
# BUNIT     = Counts
# NCHAN     = 2048
# NSPEC     = 1
# NTIME     = 0
# NSAMPLES  = 0
# EPEAK     = 4.10875183718
# ERMS      = 0.995973393526
# EMJD      = 58568.808999981004 
# REFCHAN   = 1024.0
# REFSAMPL  = 256.0
# NAVE      = 100
# NMEDIAN   = 1024
# Fft_rate  = 5000
# UTC       = 2020-06-08 22:53:42.022639
# SECONDS   =       0.0000000000 
# LST       = 10:45:26.640
# AZ        = 180.0
# EL        = 90.0
# TELLON    = -79:50:22.920
# TELLAT    = +38:25:59.160
# RA        = 10:43:08.260
# DEC       = +38:38:36.400
# GALLON    = 181:26:57.40
# GALLAT    = +60:53:56.30
# ALT_SUN   = +18:44:31.7
# AZ_SUN    = +284:53:03.1
# ETAA      = 0.8
# ETAB      = 0.99
# POLANGLE  = 0.0
# TELSIZEAM = 1.0
# TELSIZEBM = 1.0
# AST_VERS  = 05.01
0000 1398750610 11.7616
0001 1398751831 11.8533
0002 1398753051 11.7802
0003 1398754272 11.8650
0004 1398755493 11.8855
0005 1398756713 12.1273
0006 1398757934 12.0748
0007 1398759155 11.9542
0008 1398760375 11.9283
0009 1398761596 12.1496
0010 1398762817 12.3041
0011 1398764038 11.9822
0012 1398765258 11.9187
0013 1398766479 11.8141
0014 1398767700 11.7478
0015 1398768920 11.9806
0016 1398770141 11.9145
0017 1398771362 11.9813
0018 1398772583 12.0409
0019 1398773803 12.3613
0020 1398775024 12.2530
0021 1398776245 12.1599
0022 1398777465 12.0846
0023 1398778686 12.1046
0024 1398779907 12.2261
0025 1398781127 12.3745
0026 1398782348 12.1880
0027 1398783569 12.2829
0028 1398784790 12.4629
0029 1398786010 12.8819
0030 1398787231 12.3708
0031 1398788452 12.5281
0032 1398789672 12.2885
0033 1398790893 12.3479
0034 1398792114 12.5294
0035 1398793334 12.6371
0036 1398794555 12.7042
0037 1398795776 12.7752
0038 1398796997 17.5272
0039 1398798217 19.3384
0040 1398799438 13.1877
0041 1398800659 13.6419
0042 1398801879 13.0518
0043 1398803100 13.0032
0044 1398804321 13.0120
0045 1398805541 13.0230
0046 1398806762 13.1022
0047 1398807983 13.1194
0048 1398809204 13.0890
0049 1398810424 13.3099
0050 1398811645 13.4264
0051 1398812866 13.2799
0052 1398814086 13.5266
0053 1398815307 13.6054
0054 1398816528 13.5321
0055 1398817749 13.7320
0056 1398818969 13.9086
0057 1398820190 13.8766
0058 1398821411 13.8154
0059 1398822631 13.8943
0060 1398823852 14.0816
0061 1398825073 13.9741
0062 1398826293 14.2231
0063 1398827514 14.1826
0064 1398828735 14.2269
0065 1398829956 14.4507
0066 1398831176 14.4390
0067 1398832397 14.4578
0068 1398833618 14.9259
0069 1398834838 15.1731
0070 1398836059 14.8205
0071 1398837280 14.6807
0072 1398838500 14.7928
0073 1398839721 14.9332
0074 1398840942 15.0734
0075 1398842163 15.2428
0076 1398843383 15.2727
0077 1398844604 15.1977
0078 1398845825 15.4160
0079 1398847045 15.4939
0080 1398848266 15.6842
0081 1398849487 15.9349
0082 1398850708 15.8652
0083 1398851928 15.9050
0084 1398853149 15.9247
0085 1398854370 16.0148
0086 1398855590 16.1649
0087 1398856811 16.3798
0088 1398858032 16.5300
0089 1398859252 16.3916
0090 1398860473 16.6161
0091 1398861694 16.6695
0092 1398862915 16.6970
0093 1398864135 16.8213
0094 1398865356 17.0682
0095 1398866577 17.2133
0096 1398867797 17.1802
0097 1398869018 17.3441
0098 1398870239 17.4249
0099 1398871459 17.6572
0100 1398872680 17.7941
0101 1398873901 17.5941
0102 1398875122 17.8797
0103 1398876342 18.2104
0104 1398877563 18.1481
0105 1398878784 18.3602
0106 1398880004 18.5039
0107 1398881225 18.5301
0108 1398882446 18.6475
0109 1398883666 18.8425
0110 1398884887 18.7378
0111 1398886108 19.2324
0112 1398887329 19.8955
0113 1398888549 19.4064
0114 1398889770 19.3560
0115 1398890991 19.4726
0116 1398892211 19.6951
0117 1398893432 19.9535
0118 1398894653 20.5889
0119 1398895874 20.8791
0120 1398897094 20.2853
0121 1398898315 20.2702
0122 1398899536 20.4299
0123 1398900756 20.6606
0124 1398901977 20.9105
0125 1398903198 20.8989
0126 1398904418 21.0225
0127 1398905639 21.0537
0128 1398906860 21.2903
0129 1398908081 21.7110
0130 1398909301 21.6018
0131 1398910522 21.7170
0132 1398911743 21.9327
0133 1398912963 22.5805
0134 1398914184 22.3775
0135 1398915405 22.0912
0136 1398916625 22.3565
0137 1398917846 22.4802
0138 1398919067 22.7538
0139 1398920288 22.7727
0140 1398921508 22.7634
0141 1398922729 23.0121
0142 1398923950 23.1670
0143 1398925170 23.9299
0144 1398926391 24.1660
0145 1398927612 23.7179
0146 1398928833 23.6104
0147 1398930053 23.9983
0148 1398931274 24.3144
0149 1398932495 24.4799
0150 1398933715 24.5492
0151 1398934936 24.5473
0152 1398936157 24.8303
0153 1398937377 24.8428
0154 1398938598 25.0654
0155 1398939819 25.5810
0156 1398941040 25.5839
0157 1398942260 25.4696
0158 1398943481 25.5357
0159 1398944702 25.5659
0160 1398945922 26.1095
0161 1398947143 26.4789
0162 1398948364 26.5840
0163 1398949584 26.4555
0164 1398950805 26.5882
0165 1398952026 26.4489
0166 1398953247 26.8066
0167 1398954467 27.0366
0168 1398955688 27.6127
0169 1398956909 27.6380
0170 1398958129 27.3634
0171 1398959350 27.5335
0172 1398960571 27.5830
0173 1398961791 27.9476
0174 1398963012 28.4933
0175 1398964233 28.8890
0176 1398965454 28.5873
0177 1398966674 28.6941
0178 1398967895 28.7078
0179 1398969116 28.7495
0180 1398970336 29.2858
0181 1398971557 29.4799
0182 1398972778 29.2036
0183 1398973999 29.2040
0184 1398975219 29.5986
0185 1398976440 29.7083
0186 1398977661 30.0103
0187 1398978881 30.4152
0188 1398980102 30.3353
0189 1398981323 30.3044
0190 1398982543 30.4724
0191 1398983764 30.3702
0192 1398984985 30.8763
0193 1398986206 30.9703
0194 1398987426 31.2637
0195 1398988647 31.3613
0196 1398989868 31.6764
0197 1398991088 31.8337
0198 1398992309 31.9368
0199 1398993530 32.1944
0200 1398994750 31.7927
0201 1398995971 32.0433
0202 1398997192 32.3449
0203 1398998413 32.8836
0204 1398999633 32.8522
0205 1399000854 33.3177
0206 1399002075 33.8996
0207 1399003295 33.6931
0208 1399004516 34.2358
0209 1399005737 34.3972
0210 1399006958 34.8896
0211 1399008178 35.5511
0212 1399009399 34.6830
0213 1399010620 34.9058
0214 1399011840 34.9803
0215 1399013061 34.9970
0216 1399014282 34.6635
0217 1399015502 35.1889
0218 1399016723 37.1374
0219 1399017944 35.5695
0220 1399019165 35.2401
0221 1399020385 35.1732
0222 1399021606 35.2459
0223 1399022827 35.5274
0224 1399024047 35.8245
0225 1399025268 36.1737
0226 1399026489 36.2346
0227 1399027709 36.5394
0228 1399028930 36.4329
0229 1399030151 36.4550
0230 1399031372 36.9787
0231 1399032592 36.8634
0232 1399033813 36.7324
0233 1399035034 36.8881
0234 1399036254 37.2427
0235 1399037475 37.5786
0236 1399038696 38.2503
0237 1399039916 38.0744
0238 1399041137 38.0623
0239 1399042358 38.3246
0240 1399043579 38.6976
0241 1399044799 38.5634
0242 1399046020 38.4755
0243 1399047241 39.0763
0244 1399048461 38.9244
0245 1399049682 39.0223
0246 1399050903 39.0959
0247 1399052124 39.2621
0248 1399053344 39.4632
0249 1399054565 39.5883
0250 1399055786 40.0142
0251 1399057006 39.9317
0252 1399058227 39.8033
0253 1399059448 39.8446
0254 1399060668 40.2746
0255 1399061889 41.0961
0256 1399063110 40.9709
0257 1399064331 40.6061
0258 1399065551 40.9308
0259 1399066772 40.8843
0260 1399067993 41.4964
0261 1399069213 42.1195
0262 1399070434 41.2438
0263 1399071655 41.3419
0264 1399072875 41.9207
0265 1399074096 41.7836
0266 1399075317 41.7009
0267 1399076538 42.6623
0268 1399077758 43.8590
0269 1399078979 42.6940
0270 1399080200 42.5334
0271 1399081420 42.6023
0272 1399082641 43.0793
0273 1399083862 42.9008
0274 1399085083 43.2497
0275 1399086303 43.1713
0276 1399087524 43.5268
0277 1399088745 43.9663
0278 1399089965 43.7277
0279 1399091186 43.5959
0280 1399092407 43.9910
0281 1399093627 44.0224
0282 1399094848 44.3855
0283 1399096069 44.2477
0284 1399097290 44.4910
0285 1399098510 44.5326
0286 1399099731 45.3124
0287 1399100952 44.7856
0288 1399102172 45.2708
0289 1399103393 45.0268
0290 1399104614 45.1133
0291 1399105834 44.8217
0292 1399107055 45.7432
0293 1399108276 45.7207
0294 1399109497 45.3988
0295 1399110717 45.9997
0296 1399111938 45.9249
0297 1399113159 46.1023
0298 1399114379 46.1169
0299 1399115600 46.3739
0300 1399116821 46.6127
0301 1399118041 45.8246
0302 1399119262 46.8324
0303 1399120483 46.7805
0304 1399121704 46.6735
0305 1399122924 46.5467
0306 1399124145 47.0984
0307 1399125366 47.2946
0308 1399126586 46.8085
0309 1399127807 47.3125
0310 1399129028 48.1151
0311 1399130249 48.8823
0312 1399131469 48.1459
0313 1399132690 47.7255
0314 1399133911 48.1175
0315 1399135131 48.2771
0316 1399136352 48.1217
0317 1399137573 49.3863
0318 1399138793 49.8815
0319 1399140014 48.6332
0320 1399141235 48.3645
0321 1399142456 48.8192
0322 1399143676 48.9065
0323 1399144897 49.1790
0324 1399146118 49.2629
0325 1399147338 49.5175
0326 1399148559 48.9627
0327 1399149780 49.2394
0328 1399151000 49.3823
0329 1399152221 49.6197
0330 1399153442 50.0179
0331 1399154663 50.0390
0332 1399155883 49.7959
0333 1399157104 49.4672
0334 1399158325 49.3336
0335 1399159545 50.0091
0336 1399160766 50.2008
0337 1399161987 50.1552
0338 1399163208 50.3231
0339 1399164428 50.2901
0340 1399165649 50.5191
0341 1399166870 50.5988
0342 1399168090 50.9084
0343 1399169311 50.6622
0344 1399170532 50.7192
0345 1399171752 51.5437
0346 1399172973 51.5437
0347 1399174194 51.0913
0348 1399175415 51.3598
0349 1399176635 51.2357
0350 1399177856 51.2627
0351 1399179077 51.6376
0352 1399180297 51.1938
0353 1399181518 51.5359
0354 1399182739 51.7168
0355 1399183959 51.6637
0356 1399185180 51.8479
0357 1399186401 52.0214
0358 1399187622 51.6637
0359 1399188842 51.7683
0360 1399190063 54.3377
0361 1399191284 53.4115
0362 1399192504 52.4688
0363 1399193725 51.7997
0364 1399194946 51.8355
0365 1399196166 52.1985
0366 1399197387 53.1234
0367 1399198608 54.1046
0368 1399199829 52.7014
0369 1399201049 52.9158
0370 1399202270 52.9400
0371 1399203491 53.1008
0372 1399204711 52.9344
0373 1399205932 53.8006
0374 1399207153 53.0358
0375 1399208374 53.2963
0376 1399209594 53.4494
0377 1399210815 52.8201
0378 1399212036 53.0162
0379 1399213256 52.8123
0380 1399214477 53.6811
0381 1399215698 53.6544
0382 1399216918 53.6106
0383 1399218139 52.9683
0384 1399219360 53.4807
0385 1399220581 54.3485
0386 1399221801 54.5265
0387 1399223022 53.6927
0388 1399224243 53.9189
0389 1399225463 53.4485
0390 1399226684 53.6216
0391 1399227905 53.7473
0392 1399229125 53.7903
0393 1399230346 54.0692
0394 1399231567 53.6729
0395 1399232788 53.4725
0396 1399234008 53.8951
0397 1399235229 54.0245
0398 1399236450 54.4253
0399 1399237670 54.4098
0400 1399238891 53.9638
0401 1399240112 54.2826
0402 1399241333 53.8478
0403 1399242553 54.1430
0404 1399243774 55.6708
0405 1399244995 55.3808
0406 1399246215 54.2164
0407 1399247436 54.5470
0408 1399248657 54.5929
0409 1399249877 54.2400
0410 1399251098 54.9587
0411 1399252319 54.9644
0412 1399253540 54.6535
0413 1399254760 54.6399
0414 1399255981 54.3006
0415 1399257202 54.5279
0416 1399258422 55.1431
0417 1399259643 56.1378
0418 1399260864 55.1047
0419 1399262084 55.6805
0420 1399263305 55.1317
0421 1399264526 55.0308
0422 1399265747 55.4615
0423 1399266967 56.0230
0424 1399268188 55.8114
0425 1399269409 55.6974
0426 1399270629 54.9390
0427 1399271850 54.8358
0428 1399273071 55.3798
0429 1399274291 55.6184
0430 1399275512 55.7020
0431 1399276733 55.1181
0432 1399277954 55.6291
0433 1399279174 55.1976
0434 1399280395 55.0655
0435 1399281616 55.5685
0436 1399282836 55.5518
0437 1399284057 55.1952
0438 1399285278 55.5522
0439 1399286499 55.2740
0440 1399287719 55.3800
0441 1399288940 55.6573
0442 1399290161 55.5438
0443 1399291381 55.2178
0444 1399292602 55.0524
0445 1399293823 55.6400
0446 1399295043 55.5681
0447 1399296264 56.1666
0448 1399297485 56.9452
0449 1399298706 56.6141
0450 1399299926 55.5409
0451 1399301147 55.3432
0452 1399302368 55.8669
0453 1399303588 55.3612
0454 1399304809 55.8694
0455 1399306030 56.4713
0456 1399307250 55.4033
0457 1399308471 55.0814
0458 1399309692 56.2523
0459 1399310913 56.1838
0460 1399312133 57.5591
0461 1399313354 56.3593
0462 1399314575 55.9425
0463 1399315795 55.6527
0464 1399317016 55.4722
0465 1399318237 56.2205
0466 1399319458 56.4381
0467 1399320678 58.0540
0468 1399321899 56.3060
0469 1399323120 55.7301
0470 1399324340 55.5531
0471 1399325561 55.6342
0472 1399326782 55.4778
0473 1399328002 55.7976
0474 1399329223 56.6845
0475 1399330444 56.0245
0476 1399331665 55.7648
0477 1399332885 55.9616
0478 1399334106 55.6699
0479 1399335327 55.6799
0480 1399336547 56.3786
0481 1399337768 56.1564
0482 1399338989 55.6235
0483 1399340209 55.9852
0484 1399341430 55.9564
0485 1399342651 56.3727
0486 1399343872 56.3537
0487 1399345092 55.9017
0488 1399346313 55.5382
0489 1399347534 55.4433
0490 1399348754 55.5381
0491 1399349975 56.1054
0492 1399351196 55.8547
0493 1399352416 55.5976
0494 1399353637 55.3928
0495 1399354858 56.2389
0496 1399356079 55.9024
0497 1399357299 55.7135
0498 1399358520 56.3805
0499 1399359741 55.5000
0500 1399360961 55.9153
0501 1399362182 56.3056
0502 1399363403 55.7943
0503 1399364624 55.6907
0504 1399365844 55.6869
0505 1399367065 55.8071
0506 1399368286 55.5944
0507 1399369506 55.9982
0508 1399370727 55.8158
0509 1399371948 56.7523
0510 1399373168 57.4555
0511 1399374389 56.1704
0512 1399375610 55.3686
0513 1399376831 55.9717
0514 1399378051 56.4889
0515 1399379272 56.3479
0516 1399380493 57.2209
0517 1399381713 56.4069
0518 1399382934 56.2754
0519 1399384155 55.7925
0520 1399385375 55.7490
0521 1399386596 55.7122
0522 1399387817 56.3483
0523 1399389038 56.9131
0524 1399390258 56.6310
0525 1399391479 56.8158
0526 1399392700 57.3290
0527 1399393920 57.6380
0528 1399395141 57.9623
0529 1399396362 57.2014
0530 1399397583 56.4647
0531 1399398803 55.9960
0532 1399400024 55.1762
0533 1399401245 55.3838
0534 1399402465 55.3469
0535 1399403686 55.5482
0536 1399404907 54.8914
0537 1399406127 55.0446
0538 1399407348 55.7547
0539 1399408569 54.9253
0540 1399409790 55.7924
0541 1399411010 55.6804
0542 1399412231 54.9768
0543 1399413452 55.5904
0544 1399414672 55.5416
0545 1399415893 55.0711
0546 1399417114 55.4741
0547 1399418334 55.6141
0548 1399419555 54.9411
0549 1399420776 55.3182
0550 1399421997 55.6414
0551 1399423217 55.2689
0552 1399424438 55.4607
0553 1399425659 55.5274
0554 1399426879 55.1948
0555 1399428100 54.8694
0556 1399429321 55.2319
0557 1399430541 55.0762
0558 1399431762 55.1730
0559 1399432983 56.7231
0560 1399434204 56.1503
0561 1399435424 56.0196
0562 1399436645 55.3975
0563 1399437866 55.1666
0564 1399439086 55.1572
0565 1399440307 55.9470
0566 1399441528 56.5894
0567 1399442749 55.5428
0568 1399443969 54.8776
0569 1399445190 54.8682
0570 1399446411 55.5042
0571 1399447631 55.2035
0572 1399448852 55.4412
0573 1399450073 55.4623
0574 1399451293 55.0391
0575 1399452514 54.4448
0576 1399453735 54.2356
0577 1399454956 54.5598
0578 1399456176 55.3774
0579 1399457397 54.9728
0580 1399458618 54.9851
0581 1399459838 54.6757
0582 1399461059 54.8513
0583 1399462280 54.8775
0584 1399463500 55.4745
0585 1399464721 55.1433
0586 1399465942 54.9057
0587 1399467163 59.7781
0588 1399468383 56.3541
0589 1399469604 55.0113
0590 1399470825 54.9341
0591 1399472045 55.6402
0592 1399473266 55.4836
0593 1399474487 55.0509
0594 1399475708 54.7057
0595 1399476928 54.7996
0596 1399478149 54.3980
0597 1399479370 55.0946
0598 1399480590 54.8669
0599 1399481811 55.0335
0600 1399483032 55.2008
0601 1399484252 55.2413
0602 1399485473 54.8247
0603 1399486694 55.2070
0604 1399487915 55.0121
0605 1399489135 54.8772
0606 1399490356 54.8523
0607 1399491577 54.1653
0608 1399492797 54.8429
0609 1399494018 55.8202
0610 1399495239 55.4058
0611 1399496459 54.6383
0612 1399497680 54.6138
0613 1399498901 56.1586
0614 1399500122 55.7262
0615 1399501342 56.4537
0616 1399502563 58.6759
0617 1399503784 57.9722
0618 1399505004 57.5144
0619 1399506225 55.8318
0620 1399507446 54.5907
0621 1399508666 54.8437
0622 1399509887 55.1217
0623 1399511108 55.4345
0624 1399512329 55.0658
0625 1399513549 54.5748
0626 1399514770 55.0335
0627 1399515991 54.7491
0628 1399517211 55.0491
0629 1399518432 55.0370
0630 1399519653 54.7107
0631 1399520874 54.6189
0632 1399522094 54.6794
0633 1399523315 55.3680
0634 1399524536 55.8772
0635 1399525756 55.8640
0636 1399526977 54.9302
0637 1399528198 55.0758
0638 1399529418 54.7942
0639 1399530639 55.3596
0640 1399531860 55.5613
0641 1399533081 55.4893
0642 1399534301 55.0018
0643 1399535522 55.0362
0644 1399536743 55.0491
0645 1399537963 55.6222
0646 1399539184 56.2890
0647 1399540405 56.0003
0648 1399541625 55.8316
0649 1399542846 55.5062
0650 1399544067 55.6598
0651 1399545288 55.3944
0652 1399546508 55.3302
0653 1399547729 56.3778
0654 1399548950 55.5165
0655 1399550170 54.8730
0656 1399551391 54.8492
0657 1399552612 55.5743
0658 1399553833 56.1467
0659 1399555053 57.1502
0660 1399556274 55.7169
0661 1399557495 54.9313
0662 1399558715 55.3245
0663 1399559936 55.6134
0664 1399561157 55.2466
0665 1399562377 58.6459
0666 1399563598 58.6989
0667 1399564819 55.4696
0668 1399566040 55.6475
0669 1399567260 55.2217
0670 1399568481 55.0942
0671 1399569702 55.4788
0672 1399570922 55.7825
0673 1399572143 55.2554
0674 1399573364 55.5551
0675 1399574584 55.2149
0676 1399575805 55.7766
0677 1399577026 55.7325
0678 1399578247 56.1317
0679 1399579467 55.6327
0680 1399580688 55.4882
0681 1399581909 55.4581
0682 1399583129 55.5495
0683 1399584350 55.7786
0684 1399585571 55.9508
0685 1399586791 55.8494
0686 1399588012 56.1089
0687 1399589233 55.8868
0688 1399590454 55.6732
0689 1399591674 55.7042
0690 1399592895 56.8086
0691 1399594116 56.3379
0692 1399595336 55.8379
0693 1399596557 55.4614
0694 1399597778 55.6333
0695 1399598999 56.2455
0696 1399600219 56.3057
0697 1399601440 56.4828
0698 1399602661 55.8892
0699 1399603881 55.7789
0700 1399605102 55.8239
0701 1399606323 56.4045
0702 1399607543 56.0510
0703 1399608764 55.7262
0704 1399609985 56.1713
0705 1399611206 56.4069
0706 1399612426 56.2776
0707 1399613647 56.4683
0708 1399614868 57.0081
0709 1399616088 57.1816
0710 1399617309 56.7359
0711 1399618530 56.1199
0712 1399619750 56.2357
0713 1399620971 56.6583
0714 1399622192 56.6454
0715 1399623413 59.0737
0716 1399624633 57.7391
0717 1399625854 56.2910
0718 1399627075 56.2703
0719 1399628295 56.5386
0720 1399629516 56.0666
0721 1399630737 57.3316
0722 1399631958 57.6342
0723 1399633178 56.6857
0724 1399634399 56.8380
0725 1399635620 56.9931
0726 1399636840 56.7385
0727 1399638061 57.5173
0728 1399639282 56.6375
0729 1399640502 57.3357
0730 1399641723 57.2153
0731 1399642944 57.2829
0732 1399644165 57.3731
0733 1399645385 57.0962
0734 1399646606 57.9649
0735 1399647827 57.2632
0736 1399649047 57.3867
0737 1399650268 57.5831
0738 1399651489 56.9934
0739 1399652709 57.2933
0740 1399653930 58.4551
0741 1399655151 57.8940
0742 1399656372 57.9019
0743 1399657592 57.7608
0744 1399658813 57.4639
0745 1399660034 57.7958
0746 1399661254 57.4173
0747 1399662475 57.3237
0748 1399663696 57.8939
0749 1399664916 57.9207
0750 1399666137 57.8340
0751 1399667358 57.6819
0752 1399668579 59.0160
0753 1399669799 58.7868
0754 1399671020 57.9207
0755 1399672241 57.2420
0756 1399673461 58.1565
0757 1399674682 58.1479
0758 1399675903 59.7167
0759 1399677124 58.4704
0760 1399678344 57.8885
0761 1399679565 58.2732
0762 1399680786 58.5431
0763 1399682006 58.2625
0764 1399683227 58.6326
0765 1399684448 61.6704
0766 1399685668 59.4871
0767 1399686889 58.6985
0768 1399688110 58.6857
0769 1399689331 58.5963
0770 1399690551 58.0950
0771 1399691772 59.1947
0772 1399692993 59.1492
0773 1399694213 58.2490
0774 1399695434 58.6946
0775 1399696655 59.4098
0776 1399697875 59.5173
0777 1399699096 59.2476
0778 1399700317 59.1952
0779 1399701538 58.8765
0780 1399702758 58.8271
0781 1399703979 58.6058
0782 1399705200 59.1387
0783 1399706420 58.8532
0784 1399707641 58.7751
0785 1399708862 59.6249
0786 1399710083 59.0266
0787 1399711303 59.5592
0788 1399712524 59.5097
0789 1399713745 59.2817
0790 1399714965 59.8812
0791 1399716186 59.6763
0792 1399717407 58.9258
0793 1399718627 62.3152
0794 1399719848 61.7871
0795 1399721069 59.7442
0796 1399722290 60.1833
0797 1399723510 59.3863
0798 1399724731 59.8328
0799 1399725952 59.8644
0800 1399727172 60.2022
0801 1399728393 61.0698
0802 1399729614 60.6855
0803 1399730834 60.8272
0804 1399732055 60.4749
0805 1399733276 61.0228
0806 1399734497 60.7631
0807 1399735717 61.3616
0808 1399736938 60.8716
0809 1399738159 60.5583
0810 1399739379 60.8818
0811 1399740600 60.4633
0812 1399741821 61.0392
0813 1399743041 60.6495
0814 1399744262 62.2480
0815 1399745483 63.5487
0816 1399746704 60.9267
0817 1399747924 60.2717
0818 1399749145 61.2009
0819 1399750366 61.4106
0820 1399751586 61.6864
0821 1399752807 61.5986
0822 1399754028 61.1550
0823 1399755249 61.2315
0824 1399756469 61.1992
0825 1399757690 61.5721
0826 1399758911 60.6826
0827 1399760131 61.2420
0828 1399761352 61.8406
0829 1399762573 61.7934
0830 1399763793 61.6380
0831 1399765014 61.6198
0832 1399766235 62.0789
0833 1399767456 62.4516
0834 1399768676 62.1585
0835 1399769897 61.9682
0836 1399771118 62.0259
0837 1399772338 61.4463
0838 1399773559 62.5770
0839 1399774780 62.5920
0840 1399776000 62.4925
0841 1399777221 62.2874
0842 1399778442 62.9842
0843 1399779663 62.6578
0844 1399780883 62.4097
0845 1399782104 62.1039
0846 1399783325 62.4393
0847 1399784545 62.4663
0848 1399785766 62.7673
0849 1399786987 62.8712
0850 1399788208 62.8532
0851 1399789428 62.7837
0852 1399790649 63.0263
0853 1399791870 66.8780
0854 1399793090 64.9223
0855 1399794311 62.9740
0856 1399795532 63.2369
0857 1399796752 63.8018
0858 1399797973 64.0808
0859 1399799194 63.7761
0860 1399800415 63.1345
0861 1399801635 63.7941
0862 1399802856 63.4027
0863 1399804077 63.3052
0864 1399805297 65.6688
0865 1399806518 65.6065
0866 1399807739 63.5097
0867 1399808959 63.6575
0868 1399810180 63.3577
0869 1399811401 63.6092
0870 1399812622 63.9461
0871 1399813842 64.5441
0872 1399815063 64.2765
0873 1399816284 63.9687
0874 1399817504 63.8343
0875 1399818725 64.2651
0876 1399819946 65.0104
0877 1399821166 64.2721
0878 1399822387 63.8835
0879 1399823608 64.2023
0880 1399824829 63.9313
0881 1399826049 64.8119
0882 1399827270 64.4838
0883 1399828491 66.3493
0884 1399829711 65.3525
0885 1399830932 64.9151
0886 1399832153 64.2913
0887 1399833374 65.1337
0888 1399834594 64.9459
0889 1399835815 65.1005
0890 1399837036 65.7913
0891 1399838256 65.6303
0892 1399839477 64.8512
0893 1399840698 65.2991
0894 1399841918 65.8884
0895 1399843139 66.7782
0896 1399844360 65.7830
0897 1399845581 65.7946
0898 1399846801 64.8402
0899 1399848022 65.0580
0900 1399849243 65.1723
0901 1399850463 65.5896
0902 1399851684 65.2863
0903 1399852905 65.7210
0904 1399854125 65.2186
0905 1399855346 65.5153
0906 1399856567 66.0130
0907 1399857788 68.1471
0908 1399859008 66.9267
0909 1399860229 66.5001
0910 1399861450 66.3343
0911 1399862670 65.7149
0912 1399863891 66.2917
0913 1399865112 66.2631
0914 1399866333 69.5794
0915 1399867553 67.3434
0916 1399868774 65.9229
0917 1399869995 66.2184
0918 1399871215 65.6847
0919 1399872436 66.4799
0920 1399873657 67.0405
0921 1399874877 65.9335
0922 1399876098 66.4047
0923 1399877319 67.3078
0924 1399878540 66.8586
0925 1399879760 66.1195
0926 1399880981 67.5771
0927 1399882202 67.6129
0928 1399883422 66.8517
0929 1399884643 66.3078
0930 1399885864 66.8496
0931 1399887084 66.8606
0932 1399888305 67.2651
0933 1399889526 66.7820
0934 1399890747 67.1734
0935 1399891967 66.8832
0936 1399893188 67.5080
0937 1399894409 67.8271
0938 1399895629 68.6961
0939 1399896850 71.0051
0940 1399898071 68.7828
0941 1399899291 66.7749
0942 1399900512 67.7476
0943 1399901733 68.0009
0944 1399902954 67.6607
0945 1399904174 67.6704
0946 1399905395 67.5462
0947 1399906616 67.8711
0948 1399907836 67.2016
0949 1399909057 68.0726
0950 1399910278 68.0015
0951 1399911499 69.1399
0952 1399912719 68.5005
0953 1399913940 68.2325
0954 1399915161 68.2671
0955 1399916381 68.5787
0956 1399917602 68.3255
0957 1399918823 68.9172
0958 1399920043 68.0185
0959 1399921264 68.0557
0960 1399922485 68.3674
0961 1399923706 68.8796
0962 1399924926 70.4378
0963 1399926147 70.3017
0964 1399927368 69.6212
0965 1399928588 68.6653
0966 1399929809 68.9865
0967 1399931030 69.6651
0968 1399932250 69.8914
0969 1399933471 70.6429
0970 1399934692 70.1033
0971 1399935913 70.3125
0972 1399937133 69.5881
0973 1399938354 69.1632
0974 1399939575 69.6094
0975 1399940795 69.0049
0976 1399942016 69.1042
0977 1399943237 69.3451
0978 1399944458 69.4928
0979 1399945678 69.8878
0980 1399946899 70.5436
0981 1399948120 71.0187
0982 1399949340 71.7795
0983 1399950561 70.3626
0984 1399951782 69.8302
0985 1399953002 70.2363
0986 1399954223 70.2119
0987 1399955444 70.5811
0988 1399956665 70.9779
0989 1399957885 72.1777
0990 1399959106 71.5804
0991 1399960327 70.3624
0992 1399961547 70.9124
0993 1399962768 70.7841
0994 1399963989 70.8995
0995 1399965209 71.0150
0996 1399966430 71.4687
0997 1399967651 71.4160
0998 1399968872 70.9558
0999 1399970092 71.8259
1000 1399971313 72.7809
1001 1399972534 74.8370
1002 1399973754 73.3313
1003 1399974975 73.6828
1004 1399976196 72.1920
1005 1399977416 73.0640
1006 1399978637 76.5816
1007 1399979858 107.0738
1008 1399981079 130.8873
1009 1399982299 78.8920
1010 1399983520 73.8221
1011 1399984741 102.5252
1012 1399985961 182.8055
1013 1399987182 99.8510
1014 1399988403 87.4692
1015 1399989624 74.7932
1016 1399990844 77.3372
1017 1399992065 81.3668
1018 1399993286 79.5498
1019 1399994506 80.3348
1020 1399995727 92.4537
1021 1399996948 994.3158
1022 1399998168 1495.1483
1023 1399999389 144.9566
1024 1400000610 86.0588
1025 1400001831 93.5611
1026 1400003051 100.7481
1027 1400004272 91.0756
1028 1400005493 80.2228
1029 1400006713 77.9931
1030 1400007934 77.1928
1031 1400009155 75.8000
1032 1400010375 74.8773
1033 1400011596 73.7372
1034 1400012817 73.5576
1035 1400014038 88.9281
1036 1400015258 86.6499
1037 1400016479 72.8560
1038 1400017700 72.5925
1039 1400018920 72.1571
1040 1400020141 72.2387
1041 1400021362 73.6288
1042 1400022583 72.5805
1043 1400023803 73.6440
1044 1400025024 73.0130
1045 1400026245 71.3845
1046 1400027465 71.3737
1047 1400028686 71.8910
1048 1400029907 71.7588
1049 1400031127 72.0179
1050 1400032348 71.4415
1051 1400033569 71.2479
1052 1400034790 71.4361
1053 1400036010 71.5876
1054 1400037231 71.0052
1055 1400038452 70.8442
1056 1400039672 71.8150
1057 1400040893 70.9248
1058 1400042114 70.4280
1059 1400043334 70.5564
1060 1400044555 70.3548
1061 1400045776 70.3380
1062 1400046997 70.8237
1063 1400048217 71.9670
1064 1400049438 70.8787
1065 1400050659 69.7976
1066 1400051879 70.3064
1067 1400053100 69.6006
1068 1400054321 69.6001
1069 1400055541 70.3851
1070 1400056762 69.4466
1071 1400057983 69.6581
1072 1400059204 69.0874
1073 1400060424 69.5019
1074 1400061645 68.9935
1075 1400062866 69.5274
1076 1400064086 68.7844
1077 1400065307 69.1548
1078 1400066528 68.9124
1079 1400067749 68.6592
1080 1400068969 68.5967
1081 1400070190 69.1643
1082 1400071411 69.1345
1083 1400072631 68.3822
1084 1400073852 67.9034
1085 1400075073 68.2759
1086 1400076293 68.0245
1087 1400077514 67.8353
1088 1400078735 69.3166
1089 1400079956 68.4847
1090 1400081176 67.5679
1091 1400082397 68.5250
1092 1400083618 68.6904
1093 1400084838 69.9545
1094 1400086059 69.3536
1095 1400087280 67.6976
1096 1400088500 68.2277
1097 1400089721 68.2719
1098 1400090942 68.4391
1099 1400092163 68.7810
1100 1400093383 68.8084
1101 1400094604 68.5795
1102 1400095825 68.1867
1103 1400097045 69.0668
1104 1400098266 67.2174
1105 1400099487 68.0176
1106 1400100708 67.8574
1107 1400101928 67.8202
1108 1400103149 67.9452
1109 1400104370 67.0322
1110 1400105590 67.3120
1111 1400106811 67.5543
1112 1400108032 68.3952
1113 1400109252 69.8241
1114 1400110473 68.1725
1115 1400111694 68.0507
1116 1400112915 67.7399
1117 1400114135 67.6793
1118 1400115356 67.1310
1119 1400116577 68.0167
1120 1400117797 67.8832
1121 1400119018 67.6081
1122 1400120239 66.4832
1123 1400121459 67.1515
1124 1400122680 67.4868
1125 1400123901 67.9854
1126 1400125122 66.4669
1127 1400126342 67.2032
1128 1400127563 67.2739
1129 1400128784 67.1432
1130 1400130004 67.1169
1131 1400131225 66.3978
1132 1400132446 66.3588
1133 1400133666 66.7080
1134 1400134887 66.5497
1135 1400136108 66.3175
1136 1400137329 65.9812
1137 1400138549 66.4603
1138 1400139770 66.0615
1139 1400140991 66.4848
1140 1400142211 66.9853
1141 1400143432 66.3951
1142 1400144653 66.2709
1143 1400145874 66.7297
1144 1400147094 66.2156
1145 1400148315 66.4098
1146 1400149536 65.5108
1147 1400150756 65.2588
1148 1400151977 66.0575
1149 1400153198 65.5067
1150 1400154418 67.2610
1151 1400155639 66.2103
1152 1400156860 65.1931
1153 1400158081 65.4464
1154 1400159301 65.5255
1155 1400160522 66.5261
1156 1400161743 68.4636
1157 1400162963 66.3836
1158 1400164184 65.3505
1159 1400165405 65.5390
1160 1400166625 65.1990
1161 1400167846 64.5453
1162 1400169067 66.0874
1163 1400170288 66.4776
1164 1400171508 64.9430
1165 1400172729 64.2841
1166 1400173950 64.8919
1167 1400175170 64.7743
1168 1400176391 64.6340
1169 1400177612 65.0965
1170 1400178833 64.3359
1171 1400180053 64.9536
1172 1400181274 64.6843
1173 1400182495 64.9010
1174 1400183715 64.7253
1175 1400184936 64.4955
1176 1400186157 64.6050
1177 1400187377 64.0269
1178 1400188598 64.1865
1179 1400189819 64.4084
1180 1400191040 64.7340
1181 1400192260 64.4726
1182 1400193481 63.9851
1183 1400194702 64.5162
1184 1400195922 63.8752
1185 1400197143 63.8085
1186 1400198364 64.0516
1187 1400199584 64.0145
1188 1400200805 64.8879
1189 1400202026 63.2787
1190 1400203247 63.4325
1191 1400204467 63.9722
1192 1400205688 64.0242
1193 1400206909 63.3646
1194 1400208129 64.1570
1195 1400209350 63.5938
1196 1400210571 63.3863
1197 1400211791 63.0944
1198 1400213012 63.3555
1199 1400214233 63.5682
1200 1400215454 64.4284
1201 1400216674 63.7738
1202 1400217895 63.1531
1203 1400219116 62.7424
1204 1400220336 62.9009
1205 1400221557 63.0477
1206 1400222778 62.9058
1207 1400223999 62.9544
1208 1400225219 62.8000
1209 1400226440 63.0704
1210 1400227661 62.6813
1211 1400228881 62.3096
1212 1400230102 63.0936
1213 1400231323 63.1380
1214 1400232543 61.9478
1215 1400233764 62.2389
1216 1400234985 62.6354
1217 1400236206 62.2599
1218 1400237426 62.6976
1219 1400238647 62.8717
1220 1400239868 62.0156
1221 1400241088 62.0029
1222 1400242309 61.7284
1223 1400243530 62.7455
1224 1400244750 61.9324
1225 1400245971 61.9505
1226 1400247192 61.6438
1227 1400248413 61.6361
1228 1400249633 61.6658
1229 1400250854 61.1355
1230 1400252075 61.6933
1231 1400253295 62.2537
1232 1400254516 60.5982
1233 1400255737 61.0740
1234 1400256958 61.0842
1235 1400258178 61.5057
1236 1400259399 61.3954
1237 1400260620 60.8987
1238 1400261840 61.2114
1239 1400263061 61.0197
1240 1400264282 61.0445
1241 1400265502 60.4423
1242 1400266723 61.2540
1243 1400267944 61.5694
1244 1400269165 60.8211
1245 1400270385 61.3913
1246 1400271606 60.7674
1247 1400272827 60.6575
1248 1400274047 60.7432
1249 1400275268 61.1404
1250 1400276489 61.8964
1251 1400277709 60.6494
1252 1400278930 61.2194
1253 1400280151 59.9739
1254 1400281372 60.3736
1255 1400282592 61.0688
1256 1400283813 61.7786
1257 1400285034 60.7462
1258 1400286254 59.9745
1259 1400287475 59.7994
1260 1400288696 60.5922
1261 1400289916 60.5892
1262 1400291137 64.6117
1263 1400292358 62.0473
1264 1400293579 59.9376
1265 1400294799 60.0586
1266 1400296020 59.2083
1267 1400297241 59.6871
1268 1400298461 59.5460
1269 1400299682 60.0829
1270 1400300903 59.4431
1271 1400302124 59.8782
1272 1400303344 61.7326
1273 1400304565 58.9178
1274 1400305786 59.2729
1275 1400307006 59.7027
1276 1400308227 59.2505
1277 1400309448 59.1807
1278 1400310668 58.9919
1279 1400311889 59.2675
1280 1400313110 59.0286
1281 1400314331 59.9109
1282 1400315551 59.1081
1283 1400316772 58.9467
1284 1400317993 58.8546
1285 1400319213 59.0315
1286 1400320434 59.7773
1287 1400321655 60.3798
1288 1400322875 59.1886
1289 1400324096 58.7641
1290 1400325317 58.2332
1291 1400326538 58.8885
1292 1400327758 58.6782
1293 1400328979 58.9700
1294 1400330200 59.4066
1295 1400331420 58.9070
1296 1400332641 58.7928
1297 1400333862 58.9198
1298 1400335083 58.2811
1299 1400336303 59.1202
1300 1400337524 59.2303
1301 1400338745 58.3384
1302 1400339965 58.4809
1303 1400341186 58.2708
1304 1400342407 58.7509
1305 1400343627 59.5020
1306 1400344848 59.1709
1307 1400346069 58.3780
1308 1400347290 58.0118
1309 1400348510 57.4074
1310 1400349731 57.9207
1311 1400350952 57.9910
1312 1400352172 58.9558
1313 1400353393 58.3854
1314 1400354614 58.2411
1315 1400355834 57.5392
1316 1400357055 57.6650
1317 1400358276 57.8375
1318 1400359497 57.6544
1319 1400360717 57.9868
1320 1400361938 57.6789
1321 1400363159 57.7526
1322 1400364379 57.7679
1323 1400365600 58.0121
1324 1400366821 58.0908
1325 1400368041 57.8030
1326 1400369262 57.5077
1327 1400370483 57.4323
1328 1400371704 56.8681
1329 1400372924 56.8614
1330 1400374145 57.9828
1331 1400375366 57.5023
1332 1400376586 56.9707
1333 1400377807 58.3364
1334 1400379028 58.0103
1335 1400380249 57.4958
1336 1400381469 57.1049
1337 1400382690 57.2624
1338 1400383911 56.8624
1339 1400385131 56.3800
1340 1400386352 57.2308
1341 1400387573 57.3895
1342 1400388793 57.3876
1343 1400390014 58.1809
1344 1400391235 57.3612
1345 1400392456 56.7988
1346 1400393676 56.5521
1347 1400394897 56.6176
1348 1400396118 57.5337
1349 1400397338 58.1391
1350 1400398559 57.4647
1351 1400399780 57.0983
1352 1400401000 56.9606
1353 1400402221 57.1242
1354 1400403442 57.4098
1355 1400404663 57.9060
1356 1400405883 56.9243
1357 1400407104 56.7285
1358 1400408325 56.6713
1359 1400409545 57.0653
1360 1400410766 56.9587
1361 1400411987 57.6508
1362 1400413208 57.8724
1363 1400414428 56.5013
1364 1400415649 56.4993
1365 1400416870 56.2283
1366 1400418090 56.3823
1367 1400419311 57.0398
1368 1400420532 57.6815
1369 1400421752 56.9007
1370 1400422973 56.3245
1371 1400424194 56.9528
1372 1400425415 56.4491
1373 1400426635 56.4508
1374 1400427856 56.6746
1375 1400429077 56.3622
1376 1400430297 56.2691
1377 1400431518 56.1710
1378 1400432739 56.7703
1379 1400433959 56.5409
1380 1400435180 56.4831
1381 1400436401 56.6093
1382 1400437622 55.8561
1383 1400438842 56.3516
1384 1400440063 55.9541
1385 1400441284 55.6341
1386 1400442504 57.0189
1387 1400443725 56.7572
1388 1400444946 55.9358
1389 1400446166 56.2774
1390 1400447387 56.0947
1391 1400448608 56.1335
1392 1400449829 56.6164
1393 1400451049 56.7023
1394 1400452270 56.8668
1395 1400453491 56.3978
1396 1400454711 56.1606
1397 1400455932 56.6403
1398 1400457153 57.1407
1399 1400458374 56.6990
1400 1400459594 56.0707
1401 1400460815 55.9363
1402 1400462036 56.5741
1403 1400463256 56.8490
1404 1400464477 56.9182
1405 1400465698 57.2080
1406 1400466918 56.6896
1407 1400468139 57.6639
1408 1400469360 56.4444
1409 1400470581 56.1240
1410 1400471801 56.4264
1411 1400473022 59.4612
1412 1400474243 58.1051
1413 1400475463 56.3515
1414 1400476684 56.2148
1415 1400477905 56.7056
1416 1400479125 56.0459
1417 1400480346 56.2328
1418 1400481567 56.3582
1419 1400482788 56.2003
1420 1400484008 56.1095
1421 1400485229 55.5175
1422 1400486450 56.0495
1423 1400487670 56.6629
1424 1400488891 56.5050
1425 1400490112 56.2874
1426 1400491333 55.7860
1427 1400492553 55.8523
1428 1400493774 57.3073
1429 1400494995 62.2670
1430 1400496215 72.8814
1431 1400497436 78.0466
1432 1400498657 68.7851
1433 1400499877 59.9969
1434 1400501098 56.7108
1435 1400502319 56.3232
1436 1400503540 56.7117
1437 1400504760 56.0978
1438 1400505981 55.9792
1439 1400507202 56.2155
1440 1400508422 56.2175
1441 1400509643 57.0180
1442 1400510864 56.5000
1443 1400512084 55.9499
1444 1400513305 56.5368
1445 1400514526 56.2038
1446 1400515747 56.6014
1447 1400516967 56.4143
1448 1400518188 56.3719
1449 1400519409 56.5207
1450 1400520629 56.1845
1451 1400521850 56.0110
1452 1400523071 56.6068
1453 1400524291 56.4544
1454 1400525512 56.9657
1455 1400526733 56.3770
1456 1400527954 56.3503
1457 1400529174 56.5332
1458 1400530395 56.5537
1459 1400531616 56.2389
1460 1400532836 56.6356
1461 1400534057 59.7676
1462 1400535278 56.9321
1463 1400536499 56.3043
1464 1400537719 56.0557
1465 1400538940 56.5657
1466 1400540161 56.7248
1467 1400541381 56.6707
1468 1400542602 56.1070
1469 1400543823 57.0399
1470 1400545043 56.3467
1471 1400546264 56.2936
1472 1400547485 56.7279
1473 1400548706 57.8153
1474 1400549926 57.5815
1475 1400551147 56.8292
1476 1400552368 56.6484
1477 1400553588 56.6304
1478 1400554809 56.1622
1479 1400556030 56.8417
1480 1400557250 57.5691
1481 1400558471 56.9458
1482 1400559692 56.5310
1483 1400560913 56.6924
1484 1400562133 56.8082
1485 1400563354 56.7481
1486 1400564575 56.5859
1487 1400565795 56.2970
1488 1400567016 56.6194
1489 1400568237 57.5886
1490 1400569458 58.6199
1491 1400570678 60.2611
1492 1400571899 59.3117
1493 1400573120 57.4022
1494 1400574340 57.1566
1495 1400575561 56.7861
1496 1400576782 56.4823
1497 1400578002 56.6549
1498 1400579223 56.6859
1499 1400580444 56.6705
1500 1400581665 56.6257
1501 1400582885 56.8848
1502 1400584106 56.8979
1503 1400585327 57.0938
1504 1400586547 57.9674
1505 1400587768 57.9759
1506 1400588989 57.2474
1507 1400590209 56.8716
1508 1400591430 56.7070
1509 1400592651 56.7913
1510 1400593872 57.9292
1511 1400595092 61.0557
1512 1400596313 57.2758
1513 1400597534 56.9694
1514 1400598754 56.7850
1515 1400599975 57.2983
1516 1400601196 57.4292
1517 1400602416 58.0050
1518 1400603637 57.5112
1519 1400604858 57.1676
1520 1400606079 57.1652
1521 1400607299 57.3660
1522 1400608520 58.1896
1523 1400609741 58.1914
1524 1400610961 57.3126
1525 1400612182 57.6472
1526 1400613403 57.4202
1527 1400614624 57.1396
1528 1400615844 57.0207
1529 1400617065 57.1727
1530 1400618286 57.5169
1531 1400619506 57.3965
1532 1400620727 57.3338
1533 1400621948 57.0299
1534 1400623168 57.4685
1535 1400624389 57.9158
1536 1400625610 58.2907
1537 1400626831 56.8633
1538 1400628051 57.3622
1539 1400629272 56.8346
1540 1400630493 57.2094
1541 1400631713 57.3272
1542 1400632934 57.0364
1543 1400634155 57.4302
1544 1400635375 57.4201
1545 1400636596 57.5656
1546 1400637817 57.7271
1547 1400639038 57.7051
1548 1400640258 58.8791
1549 1400641479 57.9990
1550 1400642700 57.5755
1551 1400643920 57.8320
1552 1400645141 57.4116
1553 1400646362 58.6934
1554 1400647583 58.2652
1555 1400648803 57.8150
1556 1400650024 57.1555
1557 1400651245 57.3968
1558 1400652465 57.2492
1559 1400653686 57.6206
1560 1400654907 58.3436
1561 1400656127 57.8547
1562 1400657348 57.3974
1563 1400658569 57.9437
1564 1400659790 57.2479
1565 1400661010 57.5650
1566 1400662231 57.8632
1567 1400663452 57.9977
1568 1400664672 57.4590
1569 1400665893 57.7570
1570 1400667114 57.8449
1571 1400668334 57.7989
1572 1400669555 57.6855
1573 1400670776 59.2887
1574 1400671997 58.3091
1575 1400673217 58.3955
1576 1400674438 59.1291
1577 1400675659 58.1108
1578 1400676879 57.6955
1579 1400678100 57.8099
1580 1400679321 57.4098
1581 1400680541 57.9174
1582 1400681762 57.1271
1583 1400682983 57.9348
1584 1400684204 58.2741
1585 1400685424 58.4191
1586 1400686645 57.5555
1587 1400687866 57.6408
1588 1400689086 57.2284
1589 1400690307 57.7573
1590 1400691528 58.6140
1591 1400692749 59.6209
1592 1400693969 77.8957
1593 1400695190 82.9068
1594 1400696411 58.2142
1595 1400697631 57.6989
1596 1400698852 58.3035
1597 1400700073 58.2629
1598 1400701293 57.7941
1599 1400702514 57.2923
1600 1400703735 57.8462
1601 1400704956 57.7987
1602 1400706176 57.5457
1603 1400707397 57.9513
1604 1400708618 57.8105
1605 1400709838 57.9572
1606 1400711059 57.8691
1607 1400712280 57.3276
1608 1400713500 57.1639
1609 1400714721 58.2562
1610 1400715942 61.1257
1611 1400717163 59.2952
1612 1400718383 57.2521
1613 1400719604 57.3098
1614 1400720825 56.6598
1615 1400722045 57.3976
1616 1400723266 57.5263
1617 1400724487 57.1269
1618 1400725708 57.3774
1619 1400726928 58.6011
1620 1400728149 57.2071
1621 1400729370 57.4745
1622 1400730590 57.7868
1623 1400731811 57.5675
1624 1400733032 57.2872
1625 1400734252 57.2307
1626 1400735473 56.5199
1627 1400736694 56.8429
1628 1400737915 57.9861
1629 1400739135 57.7889
1630 1400740356 57.1030
1631 1400741577 56.7479
1632 1400742797 56.9028
1633 1400744018 57.4845
1634 1400745239 57.1019
1635 1400746459 57.5342
1636 1400747680 57.7058
1637 1400748901 56.6183
1638 1400750122 56.5466
1639 1400751342 56.1351
1640 1400752563 56.6990
1641 1400753784 56.6843
1642 1400755004 56.5197
1643 1400756225 56.7745
1644 1400757446 56.8577
1645 1400758666 56.6360
1646 1400759887 56.2729
1647 1400761108 57.4323
1648 1400762329 56.6409
1649 1400763549 56.6718
1650 1400764770 55.3137
1651 1400765991 56.0447
1652 1400767211 56.3224
1653 1400768432 56.9321
1654 1400769653 56.5127
1655 1400770874 56.1919
1656 1400772094 55.7131
1657 1400773315 56.0237
1658 1400774536 56.1835
1659 1400775756 56.8619
1660 1400776977 59.0916
1661 1400778198 56.5194
1662 1400779418 55.9383
1663 1400780639 55.7899
1664 1400781860 55.8840
1665 1400783081 56.0110
1666 1400784301 55.7525
1667 1400785522 55.9177
1668 1400786743 55.5389
1669 1400787963 55.7847
1670 1400789184 55.2491
1671 1400790405 55.7921
1672 1400791625 55.6687
1673 1400792846 55.8726
1674 1400794067 55.8860
1675 1400795288 55.4615
1676 1400796508 54.3774
1677 1400797729 55.3486
1678 1400798950 55.2663
1679 1400800170 55.1290
1680 1400801391 54.5941
1681 1400802612 53.9435
1682 1400803833 54.7518
1683 1400805053 54.4880
1684 1400806274 54.6198
1685 1400807495 54.9717
1686 1400808715 54.2422
1687 1400809936 53.9067
1688 1400811157 54.1475
1689 1400812377 54.4146
1690 1400813598 54.4727
1691 1400814819 54.4745
1692 1400816040 54.4001
1693 1400817260 53.8585
1694 1400818481 54.0762
1695 1400819702 54.4769
1696 1400820922 54.2027
1697 1400822143 54.2637
1698 1400823364 53.9743
1699 1400824584 53.6293
1700 1400825805 53.2446
1701 1400827026 52.8673
1702 1400828247 53.7405
1703 1400829467 54.5504
1704 1400830688 53.0002
1705 1400831909 53.1824
1706 1400833129 53.2857
1707 1400834350 52.9261
1708 1400835571 52.9151
1709 1400836791 53.5870
1710 1400838012 54.3043
1711 1400839233 52.7956
1712 1400840454 52.5852
1713 1400841674 52.1823
1714 1400842895 52.4730
1715 1400844116 52.3244
1716 1400845336 52.3436
1717 1400846557 52.5456
1718 1400847778 51.7669
1719 1400848999 51.8876
1720 1400850219 51.5792
1721 1400851440 51.1983
1722 1400852661 52.1143
1723 1400853881 51.6377
1724 1400855102 51.2132
1725 1400856323 50.9910
1726 1400857543 50.8331
1727 1400858764 50.8586
1728 1400859985 51.1233
1729 1400861206 50.9798
1730 1400862426 50.2559
1731 1400863647 50.3437
1732 1400864868 50.0895
1733 1400866088 50.3422
1734 1400867309 50.4009
1735 1400868530 50.3057
1736 1400869750 50.1505
1737 1400870971 50.0346
1738 1400872192 50.0294
1739 1400873413 49.9378
1740 1400874633 49.8020
1741 1400875854 49.8652
1742 1400877075 49.2262
1743 1400878295 49.0265
1744 1400879516 48.9123
1745 1400880737 48.8837
1746 1400881958 49.1161
1747 1400883178 48.8341
1748 1400884399 48.5459
1749 1400885620 48.5671
1750 1400886840 48.5260
1751 1400888061 48.1618
1752 1400889282 49.6446
1753 1400890502 49.3214
1754 1400891723 48.2190
1755 1400892944 48.0975
1756 1400894165 47.5043
1757 1400895385 47.5040
1758 1400896606 47.6780
1759 1400897827 48.1521
1760 1400899047 47.9139
1761 1400900268 47.2976
1762 1400901489 47.1403
1763 1400902709 46.8488
1764 1400903930 46.4519
1765 1400905151 46.4361
1766 1400906372 46.2471
1767 1400907592 46.4659
1768 1400908813 46.0894
1769 1400910034 45.9984
1770 1400911254 45.8242
1771 1400912475 45.5562
1772 1400913696 45.6370
1773 1400914916 45.5529
1774 1400916137 44.9918
1775 1400917358 45.1703
1776 1400918579 45.5551
1777 1400919799 45.3012
1778 1400921020 45.1289
1779 1400922241 45.2619
1780 1400923461 44.2853
1781 1400924682 44.5048
1782 1400925903 44.7149
1783 1400927124 44.2686
1784 1400928344 44.5398
1785 1400929565 44.0773
1786 1400930786 43.5263
1787 1400932006 43.6012
1788 1400933227 43.5856
1789 1400934448 43.1635
1790 1400935668 42.9127
1791 1400936889 42.7748
1792 1400938110 43.0237
1793 1400939331 42.0618
1794 1400940551 42.0670
1795 1400941772 42.2997
1796 1400942993 43.1065
1797 1400944213 43.6185
1798 1400945434 42.3739
1799 1400946655 41.7513
1800 1400947875 41.7636
1801 1400949096 41.1262
1802 1400950317 41.5609
1803 1400951538 41.3034
1804 1400952758 40.6572
1805 1400953979 40.7969
1806 1400955200 40.2585
1807 1400956420 40.2496
1808 1400957641 40.8223
1809 1400958862 41.8130
1810 1400960083 40.4948
1811 1400961303 39.7050
1812 1400962524 39.7919
1813 1400963745 39.9831
1814 1400964965 39.8241
1815 1400966186 39.2642
1816 1400967407 39.3812
1817 1400968627 38.9671
1818 1400969848 38.3280
1819 1400971069 38.4531
1820 1400972290 38.3925
1821 1400973510 38.1017
1822 1400974731 38.4622
1823 1400975952 37.8532
1824 1400977172 38.0510
1825 1400978393 37.6695
1826 1400979614 37.2583
1827 1400980834 37.6524
1828 1400982055 37.3104
1829 1400983276 36.9070
1830 1400984497 37.0305
1831 1400985717 36.7143
1832 1400986938 36.7299
1833 1400988159 36.4654
1834 1400989379 36.1187
1835 1400990600 35.8482
1836 1400991821 35.8395
1837 1400993041 35.9320
1838 1400994262 35.3396
1839 1400995483 35.4673
1840 1400996704 35.2073
1841 1400997924 34.9807
1842 1400999145 35.1533
1843 1401000366 34.7249
1844 1401001586 34.2674
1845 1401002807 34.5558
1846 1401004028 34.2060
1847 1401005249 33.9127
1848 1401006469 33.5980
1849 1401007690 33.6517
1850 1401008911 33.8375
1851 1401010131 33.5114
1852 1401011352 33.6767
1853 1401012573 33.1788
1854 1401013793 32.7939
1855 1401015014 32.5428
1856 1401016235 32.5829
1857 1401017456 32.4019
1858 1401018676 32.5230
1859 1401019897 33.0560
1860 1401021118 32.0099
1861 1401022338 31.8233
1862 1401023559 31.6444
1863 1401024780 31.4772
1864 1401026000 31.1762
1865 1401027221 31.2215
1866 1401028442 31.0897
1867 1401029663 30.9969
1868 1401030883 30.4631
1869 1401032104 30.4407
1870 1401033325 30.0928
1871 1401034545 29.7988
1872 1401035766 29.8472
1873 1401036987 29.5888
1874 1401038208 29.7658
1875 1401039428 29.3015
1876 1401040649 29.3411
1877 1401041870 29.5590
1878 1401043090 29.4202
1879 1401044311 29.2460
1880 1401045532 28.8783
1881 1401046752 28.3712
1882 1401047973 28.1882
1883 1401049194 28.1249
1884 1401050415 27.8146
1885 1401051635 27.8621
1886 1401052856 27.5944
1887 1401054077 27.3375
1888 1401055297 27.3469
1889 1401056518 27.1588
1890 1401057739 26.8164
1891 1401058959 26.8785
1892 1401060180 26.5275
1893 1401061401 26.6725
1894 1401062622 26.2829
1895 1401063842 26.2487
1896 1401065063 26.1996
1897 1401066284 25.7451
1898 1401067504 25.6113
1899 1401068725 25.5618
1900 1401069946 25.3871
1901 1401071166 25.2278
1902 1401072387 25.3177
1903 1401073608 25.0564
1904 1401074829 25.0406
1905 1401076049 24.7078
1906 1401077270 24.4386
1907 1401078491 24.4358
1908 1401079711 24.3291
1909 1401080932 24.3536
1910 1401082153 23.9260
1911 1401083374 23.8108
1912 1401084594 23.3129
1913 1401085815 23.2927
1914 1401087036 23.3375
1915 1401088256 23.2683
1916 1401089477 23.2481
1917 1401090698 22.8979
1918 1401091918 22.7278
1919 1401093139 22.5169
1920 1401094360 22.5614
1921 1401095581 22.3939
1922 1401096801 22.2626
1923 1401098022 21.8886
1924 1401099243 21.9886
1925 1401100463 22.0556
1926 1401101684 21.6968
1927 1401102905 21.5218
1928 1401104125 21.3032
1929 1401105346 20.9336
1930 1401106567 20.8407
1931 1401107788 20.8338
1932 1401109008 20.8294
1933 1401110229 20.7954
1934 1401111450 20.4855
1935 1401112670 20.2652
1936 1401113891 20.1417
1937 1401115112 19.9590
1938 1401116333 20.0645
1939 1401117553 19.9007
1940 1401118774 19.4346
1941 1401119995 19.5530
1942 1401121215 19.3218
1943 1401122436 19.3182
1944 1401123657 19.2074
1945 1401124877 19.0959
1946 1401126098 19.1576
1947 1401127319 18.8903
1948 1401128540 18.7316
1949 1401129760 18.4173
1950 1401130981 18.3496
1951 1401132202 18.9240
1952 1401133422 18.7961
1953 1401134643 18.0793
1954 1401135864 17.7699
1955 1401137084 17.8615
1956 1401138305 17.6479
1957 1401139526 17.5671
1958 1401140747 17.4226
1959 1401141967 17.4810
1960 1401143188 17.1660
1961 1401144409 16.8715
1962 1401145629 17.0047
1963 1401146850 16.9480
1964 1401148071 17.0718
1965 1401149291 16.9155
1966 1401150512 16.4814
1967 1401151733 16.4278
1968 1401152954 16.2544
1969 1401154174 16.2290
1970 1401155395 16.1008
1971 1401156616 15.9937
1972 1401157836 16.0292
1973 1401159057 15.9069
1974 1401160278 15.8062
1975 1401161499 15.6758
1976 1401162719 15.5955
1977 1401163940 15.4667
1978 1401165161 15.4426
1979 1401166381 15.4303
1980 1401167602 15.3334
1981 1401168823 15.3999
1982 1401170043 15.1078
1983 1401171264 15.1105
1984 1401172485 14.8673
1985 1401173706 14.9135
1986 1401174926 14.7025
1987 1401176147 14.6508
1988 1401177368 14.5042
1989 1401178588 14.4860
1990 1401179809 14.7188
1991 1401181030 14.6429
1992 1401182250 14.1656
1993 1401183471 14.0174
1994 1401184692 14.0644
1995 1401185913 14.6509
1996 1401187133 14.1529
1997 1401188354 13.9512
1998 1401189575 13.7579
1999 1401190795 13.6300
2000 1401192016 13.6550
2001 1401193237 13.6783
2002 1401194458 13.6480
2003 1401195678 13.6444
2004 1401196899 17.7242
2005 1401198120 20.8602
2006 1401199340 13.8607
2007 1401200561 13.9537
2008 1401201782 13.8072
2009 1401203002 13.2792
2010 1401204223 13.2779
2011 1401205444 13.0303
2012 1401206665 12.9613
2013 1401207885 12.7856
2014 1401209106 12.7170
2015 1401210327 12.8521
2016 1401211547 12.7259
2017 1401212768 12.7911
2018 1401213989 12.9316
2019 1401215209 12.7958
2020 1401216430 12.4684
2021 1401217651 12.3671
2022 1401218872 12.4368
2023 1401220092 12.5045
2024 1401221313 12.4682
2025 1401222534 12.3271
2026 1401223754 12.4331
2027 1401224975 12.5202
2028 1401226196 12.1939
2029 1401227416 12.1413
2030 1401228637 12.1262
2031 1401229858 12.0295
2032 1401231079 12.1051
2033 1401232299 12.0350
2034 1401233520 12.0273
2035 1401234741 12.1497
2036 1401235961 12.0344
2037 1401237182 12.0532
2038 1401238403 11.9924
2039 1401239624 11.9151
2040 1401240844 11.9172
2041 1401242065 12.0052
2042 1401243286 11.9793
2043 1401244506 11.9941
2044 1401245727 11.8883
2045 1401246948 11.9702
2046 1401248168 12.0148
2047 1401249389 12.0026
